,SD_rt,accuracy,auto_participant_id,average_switch_rt,block,blueprint_id,changed,check_times,end_time,first_switch_rt,index,internal_node_id,mean_rt,median_rt,occurence,participant_age,participant_ans,participant_gender,participant_id,start_time,stimulus_off,switch_type,target_ans,time_elapsed,trial_index,trial_type,type,view_history
0,416.31138929491743,1.0,1152.5099999271333_59120,1463.9033333333318,1.0,,0,1.0,,871.005000000001,0,,1499.0833333333328,1572.489999999998,0.0,20,1.0,,6538251.0,,,1463.0,1.0,27666,5,,ts-trial-digit-span,
0,460.73186952331173,1.0,1152.5099999271333_59120,1330.363333333332,22.0,,1,,,935.0350000000036,6,,1086.2827777777793,935.0350000000036,1.0,20,1.0,,6538251.0,,,NONE-DS,1.0,165285,47,,ts-trial-digit-span,
1,409.4683401409409,1.0,1152.5099999271333_59120,2425.399999999999,7.0,,1,,,2279.4199999999983,0,,2031.6494444444445,2104.895000000004,1.0,20,0.0,,6538251.0,,,DS-SR,0.0,63973,17,,ts-trial-spatial-rotation,
2,351.9908466056577,,1152.5099999271333_59120,2104.965000000006,16.0,,1,,,1802.3800000000049,0,,2344.5041666666752,2288.7400000000052,1.0,20,2.0,,6538251.0,,,SR-SS,0.0,126506,35,,ts-trial-spatial-span,
0,370.1676608308764,1.0,1152.5099999271333_59120,977.4066666666768,46.0,,1,,,839.7000000000116,15,,1061.1166666666654,933.9899999999907,2.0,20,1.0,,6538251.0,,,NONE-DS,1.0,317021,95,,ts-trial-digit-span,
1,550.2239777914649,1.0,1152.5099999271333_59120,2604.6649999999886,31.0,,1,,,2491.239999999991,9,,2140.748333333327,2194.262499999997,2.0,20,2.0,,6538251.0,,,DS-SR,2.0,213834,65,,ts-trial-spatial-rotation,
2,608.2833344464428,1.0,1152.5099999271333_59120,1951.6016666666837,37.0,,1,,,1564.210000000021,6,,2023.9205555555527,2096.3099999999977,2.0,20,2.0,,6538251.0,,,SR-SS,2.0,257332,77,,ts-trial-spatial-span,
0,236.10479328926024,1.0,1152.5099999271333_59120,1167.7116666666698,61.0,,1,,,1166.460000000021,24,,1132.8091666666733,1135.0275000000256,3.0,20,2.0,,6538251.0,,,NONE-DS,2.0,408470,125,,ts-trial-digit-span,
1,248.36583729786452,,1152.5099999271333_59120,1231.338333333338,55.0,,1,,,1628.765000000014,15,,1202.1216666666635,1138.5574999999953,3.0,20,2.0,,6538251.0,,,DS-SR,1.0,365697,113,,ts-trial-spatial-rotation,
2,565.623240255733,,1152.5099999271333_59120,1588.2033333333482,67.0,,1,,,1533.6300000000049,15,,1784.9756249999991,1657.6199999999953,3.0,20,0.0,,6538251.0,,,SR-SS,2.0,445251,137,,ts-trial-spatial-span,
0,233.61906277900908,1.0,1152.5099999271333_59120,931.890000000014,75.0,,1,,,1014.2300000000397,30,,1067.849999999996,1006.0800000000163,4.0,20,0.0,,6538251.0,,,NONE-DS,0.0,500934,153,,ts-trial-digit-span,
1,250.84694458472993,1.0,1152.5099999271333_59120,1463.8099999999783,84.0,,1,,,1119.4649999999674,21,,1427.1275000000023,1441.8074999999953,4.0,20,1.0,,6538251.0,,,DS-SR,1.0,551288,171,,ts-trial-spatial-rotation,
2,514.6425586159904,,1152.5099999271333_59120,1457.0183333333505,98.0,,1,,,1517.390000000014,23,,1686.9393750000017,1773.8624999999884,4.0,20,1.0,,6538251.0,,,SR-SS,0.0,637582,200,,ts-trial-spatial-span,
0,300.76011798383934,1.0,1152.5099999271333_59120,1240.7466666667024,90.0,,1,,,1731.1550000000282,39,,1261.3262500000128,1261.4249999999884,5.0,20,1.0,,6538251.0,,,NONE-DS,1.0,590984,183,,ts-trial-digit-span,
1,441.0911367226061,,1152.5099999271333_59120,1604.7833333333256,106.0,,1,,,1461.75,27,,1648.4757142857084,1706.2199999999718,5.0,20,0.0,,6538251.0,,,DS-SR,1.0,691968,216,,ts-trial-spatial-rotation,
2,315.80297471288657,,1152.5099999271333_59120,1536.1566666666574,113.0,,1,,,1698.0500000000463,31,,1386.6374999999923,1455.2099999999627,5.0,20,0.0,,6538251.0,,,SR-SS,2.0,742760,230,,ts-trial-spatial-span,
0,312.04752309128753,1.0,1152.5099999271333_59120,1354.9933333333272,125.0,,1,,,1863.890000000014,47,,1182.4256250000035,1147.922499999986,6.0,20,2.0,,6538251.0,,,NONE-DS,2.0,824868,254,,ts-trial-digit-span,
1,431.0248785095365,1.0,1152.5099999271333_59120,1687.713333333338,119.0,,1,,,1584.3950000000186,34,,1829.6658333333326,1741.8325000000186,6.0,20,0.0,,6538251.0,,,DS-SR,0.0,786061,242,,ts-trial-spatial-rotation,
2,304.7558017690777,,1152.5099999271333_59120,1525.2133333333768,133.0,,1,,,1464.2850000000324,37,,1428.1107142857177,1368.420000000042,6.0,20,0.0,,6538251.0,,,SR-SS,2.0,873623,270,,ts-trial-spatial-span,
0,243.24340499554353,1.0,1152.5099999271333_59120,1094.0250000000622,162.0,,1,,,974.0500000000467,55,,1106.5321428571563,1150.810000000056,7.0,20,1.0,,6538251.0,,,NONE-DS,1.0,1075279,328,,ts-trial-digit-span,
1,542.6576113312178,1.0,1152.5099999271333_59120,1013.7550000000047,140.0,,1,,,1301.515000000014,40,,1183.4974999999977,1166.1875,7.0,20,0.0,,6538251.0,,,DS-SR,0.0,920584,284,,ts-trial-spatial-rotation,
2,486.9735766771062,,1152.5099999271333_59120,1308.0133333333458,148.0,,1,,,548.8449999999722,44,,1096.3256250000122,1153.6350000000093,7.0,20,1.0,,6538251.0,,,SR-SS,0.0,976071,300,,ts-trial-spatial-span,
0,228.21068675675357,1.0,1152.5099999271333_59120,1053.3199999999488,177.0,,1,,,998.435000000056,62,,1088.170000000042,1053.3199999999488,8.0,20,2.0,,6538251.0,,,NONE-DS,2.0,1170744,358,,ts-trial-digit-span,
1,466.4685704891594,,1152.5099999271333_59120,911.2316666666884,156.0,,1,,,425.6149999999907,48,,1175.409166666679,1169.212499999965,8.0,20,1.0,,6538251.0,,,DS-SR,0.0,1033230,316,,ts-trial-spatial-rotation,
2,576.8123549348063,,1152.5099999271333_59120,1354.2150000000065,169.0,,1,,,1840.5150000001306,52,,1519.6737499999872,1577.3950000000186,8.0,20,0.0,,6538251.0,,,SR-SS,2.0,1112761,342,,ts-trial-spatial-span,
0,159.8214933457552,1.0,1168.1700000001456_40690,1908.261666666668,1.0,,0,1.0,,1865.4199999999985,0,,1881.8968749999985,1880.5824999999968,0.0,20,1.0,,,,,SR-SS,1.0,76471,5,,ts-trial-digit-span,
0,437.890063756492,,1168.1700000001456_40690,1601.3216666666656,15.0,,1,,,1716.5800000000165,8,,1767.9233333333348,1759.4775000000081,1.0,20,0.0,,,,,NONE-DS,1.0,182072,39,,ts-trial-digit-span,
1,498.1556367957944,1.0,1168.1700000001456_40690,1747.8133333333342,21.0,,1,,,1334.2700000000184,0,,1856.482500000002,1821.7749999999942,1.0,20,0.0,,,,,DS-SR,0.0,218607,51,,ts-trial-spatial-rotation,
2,193.0924927075011,,1168.1700000001456_40690,1628.875,9.0,,1,,,1789.959999999992,0,,1678.0149999999994,1677.1274999999878,1.0,20,2.0,,,,,SR-SS,0.0,135085,25,,ts-trial-spatial-span,
0,493.291227883376,1.0,1168.1700000001456_40690,1982.1416666666628,29.0,,1,,,2669.9249999999884,14,,1817.5881249999948,1738.827500000014,2.0,20,1.0,,,,,NONE-DS,1.0,270848,67,,ts-trial-digit-span,
1,598.6467756420752,,1168.1700000001456_40690,2096.609999999986,37.0,,1,,,2599.7999999999884,8,,1926.0483333333202,1861.0774999999849,2.0,20,1.0,,,,,DS-SR,0.0,317158,83,,ts-trial-spatial-rotation,
2,606.6779822392754,1.0,1168.1700000001456_40690,2074.3150000000023,43.0,,1,,,2927.5100000000093,6,,1968.6087499999994,1765.7600000000093,2.0,20,0.0,,,,,SR-SS,0.0,375731,99,,ts-trial-spatial-span,
0,670.8155287459069,1.0,1168.1700000001456_40690,2226.208333333372,65.0,,1,,,2337.9400000000605,22,,1892.2783333333791,1664.195000000065,3.0,20,1.0,,,,,NONE-DS,1.0,534929,147,,ts-trial-digit-span,
1,313.4990247672399,1.0,1168.1700000001456_40690,1697.5116666666581,51.0,,1,,,1530.0299999999695,14,,1762.849999999996,1662.3699999999953,3.0,20,2.0,,,,,DS-SR,2.0,436492,117,,ts-trial-spatial-rotation,
2,638.0575148053308,1.0,1168.1700000001456_40690,1802.6066666666495,57.0,,1,,,2298.1300000000047,14,,1802.223125000004,1655.2574999999779,3.0,20,2.0,,,,,SR-SS,2.0,484045,131,,ts-trial-spatial-span,
0,590.2695979794264,1.0,1168.1700000001456_40690,1873.8733333333319,77.0,,1,,,2102.375,28,,1758.6378571428857,1745.2750000000233,4.0,20,0.0,,,,,NONE-DS,0.0,629973,177,,ts-trial-digit-span,
1,633.4297264693133,1.0,1168.1700000001456_40690,1582.0699999999488,84.0,,1,,,1091.064999999944,20,,1881.1616666666362,1670.7249999999767,4.0,20,2.0,,,,,DS-SR,2.0,668017,191,,ts-trial-spatial-rotation,
2,430.6194438906535,,1168.1700000001456_40690,1841.1200000000342,71.0,,1,,,2587.2200000000885,22,,1873.288333333369,1821.835000000021,4.0,20,1.0,,,,,SR-SS,0.0,581726,163,,ts-trial-spatial-span,
0,702.3249773626942,1.0,1168.1700000001456_40690,2252.1800000000126,93.0,,1,,,2434.285000000033,35,,2114.097500000013,1971.4799999999816,5.0,20,0.0,,,,,NONE-DS,0.0,730928,210,,ts-trial-digit-span,
1,468.87817802129143,1.0,1168.1700000001456_40690,1946.8266666666605,108.0,,1,,,1730.4649999999676,29,,2108.285625000004,1903.5599999999977,5.0,20,0.0,,,,,DS-SR,0.0,829142,242,,ts-trial-spatial-rotation,
2,411.19732238441054,,1168.1700000001456_40690,1962.0566666666418,99.0,,1,,,2089.42499999993,28,,1729.6661111111234,1976.0899999999676,5.0,20,0.0,,,,,SR-SS,1.0,768798,224,,ts-trial-spatial-span,
0,467.08470668246156,1.0,1168.1700000001456_40690,1272.0416666666667,130.0,,1,,,1483.6199999999951,41,,1489.843333333304,1342.7925000000396,6.0,20,2.0,,,,,NONE-DS,2.0,983165,286,,ts-trial-digit-span,
1,597.3762438897444,1.0,1168.1700000001456_40690,1821.3199999999879,122.0,,1,,,1971.0899999999676,37,,2090.0631250000006,2091.5900000000256,6.0,20,0.0,,,,,DS-SR,0.0,928040,270,,ts-trial-spatial-rotation,
2,400.405000785665,,1168.1700000001456_40690,2468.831666666665,116.0,,1,,,2130.1450000000186,37,,2285.1041666666474,2366.2825000000303,6.0,20,0.0,,,,,SR-SS,2.0,883516,258,,ts-trial-spatial-span,
0,387.6138560636779,1.0,1168.1700000001456_40690,1763.8033333332278,153.0,,1,,,2268.3899999998976,47,,1871.9949999999722,1789.0200000000186,7.0,20,0.0,,,,,NONE-DS,0.0,1166743,342,,ts-trial-digit-span,
1,321.7906652261065,,1168.1700000001456_40690,2108.80500000009,142.0,,1,,,1701.4050000000282,45,,2199.6516666666917,2207.765000000014,7.0,20,1.0,,,,,DS-SR,2.0,1071008,314,,ts-trial-spatial-rotation,
2,497.08663615777965,1.0,1168.1700000001456_40690,2122.9733333333475,136.0,,1,,,2443.640000000014,43,,2466.66333333335,2496.0175000000163,7.0,20,1.0,,,,,SR-SS,1.0,1020566,300,,ts-trial-spatial-span,
0,698.6196419428368,1.0,1168.1700000001456_40690,1969.1950000000656,164.0,,1,,,1541.864999999991,52,,2288.286666666701,2396.52500000014,8.0,20,2.0,,,,,NONE-DS,2.0,1255889,370,,ts-trial-digit-span,
1,431.83203282837803,1.0,1168.1700000001456_40690,2160.5866666666698,158.0,,1,,,1610.7299999999814,51,,1972.823333333324,1901.7249999999767,8.0,20,0.0,,,,,DS-SR,0.0,1205358,356,,ts-trial-spatial-rotation,
2,726.7775693119794,1.0,1168.1700000001456_40690,2073.88333333338,148.0,,1,,,1095.2849999999162,49,,2255.1239999999757,2435.4200000001583,8.0,20,0.0,,,,,SR-SS,0.0,1134022,332,,ts-trial-spatial-span,
0,396.64071515668206,1.0,1273.4650000929832_33389,2146.32666666668,1.0,,0,1.0,,2218.795000000042,0,,1818.8950000000088,1721.7050000000163,0.0,22,1.0,,6425791.0,,,SR-SS,1.0,282440,5,,ts-trial-digit-span,
0,364.8262704454613,1.0,1273.4650000929832_33389,1395.141666666682,14.0,,1,,,1832.765000000014,6,,1268.4021428571432,1052.1399999999558,1.0,22,1.0,,6425791.0,,,NONE-DS,1.0,368221,33,,ts-trial-digit-span,
1,297.9953818329206,1.0,1273.4650000929832_33389,1285.8700000000147,21.0,,1,,,1468.7000000000116,0,,1386.7066666666587,1331.765000000014,1.0,22,1.0,,6425791.0,,,DS-SR,1.0,405018,47,,ts-trial-spatial-rotation,
2,535.234527261299,1.0,1273.4650000929832_33389,2022.5850000000019,7.0,,1,,,1455.489999999991,0,,1580.5414285714255,1455.489999999991,1.0,22,0.0,,6425791.0,,,SR-SS,0.0,315773,17,,ts-trial-spatial-span,
0,505.05971773972465,,1273.4650000929832_33389,1429.628333333317,30.0,,1,,,1227.8850000000093,13,,1389.2499999999916,1227.8850000000093,2.0,22,0.0,,6425791.0,,,NONE-DS,2.0,465087,65,,ts-trial-digit-span,
1,266.55430927905104,1.0,1273.4650000929832_33389,1432.3349999999627,44.0,,1,,,1555.510000000009,9,,1176.9507142857017,1123.4899999999907,2.0,22,0.0,,6425791.0,,,DS-SR,0.0,549890,93,,ts-trial-spatial-rotation,
2,362.72546123885985,1.0,1273.4650000929832_33389,1488.045000000003,37.0,,1,,,1906.3099999999977,7,,1221.3864285714476,1126.5,2.0,22,0.0,,6425791.0,,,SR-SS,0.0,503170,79,,ts-trial-spatial-span,
0,66.84643023911698,1.0,1273.4650000929832_33389,1222.4283333333053,76.0,,1,,,1211.0499999999304,20,,1249.070000000007,1247.702500000014,3.0,22,1.0,,6425791.0,,,NONE-DS,1.0,770182,157,,ts-trial-digit-span,
1,311.5696331079339,,1273.4650000929832_33389,1185.8999999999844,60.0,,1,,,1375.260000000009,16,,1084.8783333333236,1193.3950000000184,3.0,22,2.0,,6425791.0,,,DS-SR,1.0,658422,125,,ts-trial-spatial-rotation,
2,303.74348145725844,1.0,1273.4650000929832_33389,1164.281666666696,51.0,,1,,,1183.7150000000838,14,,1343.8594444444689,1311.3349999999627,3.0,22,1.0,,6425791.0,,,SR-SS,1.0,598027,107,,ts-trial-spatial-span,
0,332.1315403284437,1.0,1273.4650000929832_33389,1385.1066666666884,93.0,,1,,,1570.6199999999951,28,,1333.236428571416,1273.5499999999304,4.0,22,2.0,,6425791.0,,,NONE-DS,2.0,879176,191,,ts-trial-digit-span,
1,290.7778932020095,,1273.4650000929832_33389,1380.7633333333458,84.0,,1,,,1442.7750000000233,25,,1315.2533333333236,1267.4000000000233,4.0,22,0.0,,6425791.0,,,DS-SR,2.0,817304,173,,ts-trial-spatial-rotation,
2,373.7776179586931,,1273.4650000929832_33389,1501.4749999999767,69.0,,1,,,1181.5999999999767,23,,1509.5557142857162,1569.890000000014,4.0,22,0.0,,6425791.0,,,SR-SS,2.0,721782,143,,ts-trial-spatial-span,
0,244.68872230857505,,1273.4650000929832_33389,1180.4383333333535,113.0,,1,,,1391.4549999999579,35,,1358.4600000000294,1391.4549999999579,5.0,22,2.0,,6425791.0,,,NONE-DS,1.0,1013383,232,,ts-trial-digit-span,
1,484.72914922320086,1.0,1273.4650000929832_33389,1067.266666666682,107.0,,1,,,1346.8399999999674,34,,1355.9166666666472,1207.0049999999464,5.0,22,1.0,,6425791.0,,,DS-SR,1.0,975407,220,,ts-trial-spatial-rotation,
2,252.62752680342388,1.0,1273.4650000929832_33389,1242.4650000000063,100.0,,1,,,1373.5400000000373,30,,1264.4771428571382,1225.3699999999953,5.0,22,0.0,,6425791.0,,,SR-SS,0.0,924237,206,,ts-trial-spatial-span,
0,331.7109934689562,1.0,1273.4650000929832_33389,1222.4616666666698,138.0,,1,,,1533.0800000000745,42,,1290.7772222222604,1081.3999999999069,6.0,22,2.0,,6425791.0,,,NONE-DS,2.0,1173149,282,,ts-trial-digit-span,
1,174.7203184278998,1.0,1273.4650000929832_33389,1120.4983333333705,120.0,,1,,,1120.5549999999346,40,,1130.310555555573,1116.8249999999532,6.0,22,2.0,,6425791.0,,,DS-SR,2.0,1049794,246,,ts-trial-spatial-rotation,
2,233.07168005664332,1.0,1273.4650000929832_33389,1148.391666666682,129.0,,1,,,1105.7299999999814,37,,1288.8222222222118,1296.529999999795,6.0,22,2.0,,6425791.0,,,SR-SS,2.0,1110363,264,,ts-trial-spatial-span,
0,316.75178759423886,1.0,1273.4650000929832_33389,1156.7366666666544,154.0,,1,,,1476.489999999991,51,,1283.1008333333302,1236.5725000000093,7.0,22,0.0,,6425791.0,,,NONE-DS,0.0,1270770,314,,ts-trial-digit-span,
1,169.24202987144992,1.0,1273.4650000929832_33389,1212.376666666707,160.0,,1,,,1340.7050000000745,49,,1192.9633333333509,1142.2450000001118,7.0,22,0.0,,6425791.0,,,DS-SR,0.0,1306916,326,,ts-trial-spatial-rotation,
2,384.03958750862637,1.0,1273.4650000929832_33389,1319.6783333333053,147.0,,1,,,1033.2650000001304,46,,1327.7621428571376,1283.5300000000282,7.0,22,1.0,,6425791.0,,,SR-SS,1.0,1224422,300,,ts-trial-spatial-span,
0,594.0752318799958,1.0,1273.4650000929832_33389,2154.094999999972,183.0,,1,,,2238.875,57,,2078.5350000000326,2154.094999999972,8.0,22,2.0,,6425791.0,,,NONE-DS,2.0,1470893,372,,ts-trial-digit-span,
1,533.3116648224346,1.0,1273.4650000929832_33389,1580.4999999999225,175.0,,1,,,1492.5749999999537,58,,1449.3700000000244,1423.8625000000466,8.0,22,2.0,,6425791.0,,,DS-SR,2.0,1414665,356,,ts-trial-spatial-rotation,
2,249.08219780658567,1.0,1273.4650000929832_33389,1189.82833333329,169.0,,1,,,1110.8649999999907,53,,1079.2641666666605,1082.655000000028,8.0,22,1.0,,6425791.0,,,SR-SS,1.0,1370914,344,,ts-trial-spatial-span,
0,540.7959063225584,1.0,1718.75_45854,2264.2533333333317,1.0,,0,1.0,,2229.07,0,,1767.9542857142847,1977.7799999999988,0.0,19,1.0,,6578551.0,,,SR-SS,1.0,54758,5,,ts-trial-digit-span,
0,381.07310755052924,,1718.75_45854,1622.151666666672,1.0,,1,,,1315.804999999993,7,,1752.5212500000052,1738.340000000011,1.0,19,0.0,,6578551.0,,,NONE-DS,1.0,157881,37,,ts-trial-digit-span,
1,611.2689587130272,1.0,1718.75_45854,1134.0166666666628,1.0,,1,,,985.6099999999859,0,,1500.361111111111,1319.1849999999977,1.0,19,0.0,,6578551.0,,,DS-SR,0.0,206106,53,,ts-trial-spatial-rotation,
2,494.93663880916216,,1718.75_45854,1734.6200000000051,1.0,,1,,,2378.090000000011,0,,1908.4299999999967,1950.534999999989,1.0,19,0.0,,6578551.0,,,SR-SS,1.0,102199,21,,ts-trial-spatial-span,
0,475.37430178171593,,1718.75_45854,1466.2966666666327,1.0,,1,,,1662.3949999999606,15,,1831.4122222222052,1805.0449999999842,2.0,19,0.0,,6578551.0,,,NONE-DS,2.0,320372,87,,ts-trial-digit-span,
1,276.80061467422337,,1718.75_45854,1452.5316666666574,10.0,,1,,,1725.0599999999977,9,,1544.8605555555487,1519.664999999979,2.0,19,2.0,,6578551.0,,,DS-SR,1.0,418476,119,,ts-trial-spatial-rotation,
2,497.68601069950836,1.0,1718.75_45854,1588.6299999999658,1.0,,1,,,1720.3849999999509,8,,1826.8093749999898,1827.3549999999814,2.0,19,0.0,,6578551.0,,,SR-SS,0.0,267074,71,,ts-trial-spatial-span,
0,548.6114518878571,1.0,1718.75_45854,1621.4833333333565,32.0,,1,,,1017.875,24,,1442.446000000043,1233.9500000000696,3.0,19,1.0,,6578551.0,,,NONE-DS,1.0,570859,163,,ts-trial-digit-span,
1,480.5904702712314,1.0,1718.75_45854,1977.8849999999704,25.0,,1,,,2075.0400000000373,18,,1721.7371428571143,1795.5,3.0,19,0.0,,6578551.0,,,DS-SR,0.0,524647,149,,ts-trial-spatial-rotation,
2,418.7323361533795,,1718.75_45854,1631.4983333333319,5.0,,1,,,1610.8800000000049,16,,1787.112142857131,1610.8800000000049,3.0,19,2.0,,6578551.0,,,SR-SS,0.0,367877,105,,ts-trial-spatial-span,
0,394.7344074532697,1.0,1718.75_45854,1823.2833333333256,52.0,,1,,,1224.9050000000282,29,,1654.107500000003,1517.842500000028,4.0,19,1.0,,6578551.0,,,NONE-DS,1.0,706409,206,,ts-trial-digit-span,
1,232.81769944349946,1.0,1718.75_45854,1272.1566666666574,46.0,,1,,,1159.6550000000282,25,,1207.9941666666807,1131.9725000000326,4.0,19,1.0,,6578551.0,,,DS-SR,1.0,667976,193,,ts-trial-spatial-rotation,
2,495.1825553234495,,1718.75_45854,1817.0916666666355,19.0,,1,,,1519.5299999999695,23,,1497.4333333333198,1543.0975000000035,4.0,19,2.0,,6578551.0,,,SR-SS,1.0,482297,137,,ts-trial-spatial-span,
0,275.73078816205333,,1718.75_45854,1637.394999999941,73.0,,1,,,1571.9699999999718,35,,1518.0021428571283,1518.510000000009,5.0,19,0.0,,6578551.0,,,NONE-DS,1.0,847008,248,,ts-trial-digit-span,
1,285.3939569159484,1.0,1718.75_45854,1546.2316666666495,58.0,,1,,,1451.4649999999676,31,,1602.5691666666535,1567.3874999999534,5.0,19,0.0,,6578551.0,,,DS-SR,0.0,743060,218,,ts-trial-spatial-rotation,
2,201.3964013836414,1.0,1718.75_45854,1328.2333333333565,37.0,,1,,,1408.1300000000049,29,,1398.8505555555846,1422.185000000056,5.0,19,1.0,,6578551.0,,,SR-SS,1.0,607767,175,,ts-trial-spatial-span,
0,240.35367431215892,1.0,1718.75_45854,1448.4550000000356,88.0,,1,,,1420.8350000000794,42,,1514.9012500000244,1536.2575000000652,6.0,19,0.0,,6578551.0,,,NONE-DS,0.0,940904,278,,ts-trial-digit-span,
1,474.6842885610346,,1718.75_45854,1244.2683333333116,80.0,,1,,,1310.75,37,,1498.2331249999697,1351.197499999951,6.0,19,1.0,,6578551.0,,,DS-SR,0.0,884514,262,,ts-trial-spatial-rotation,
2,306.6725252101226,,1718.75_45854,1485.9616666666698,64.0,,1,,,1647.4799999999814,38,,1565.7416666666718,1606.8150000000605,6.0,19,2.0,,6578551.0,,,SR-SS,0.0,783388,230,,ts-trial-spatial-span,
0,409.61529577966985,1.0,1718.75_45854,1755.3850000000868,105.0,,1,,,1166.810000000056,50,,1635.376666666707,1654.1224999999395,7.0,19,2.0,,6578551.0,,,NONE-DS,2.0,1048358,312,,ts-trial-digit-span,
1,254.69658210935836,1.0,1718.75_45854,1622.0516666666372,96.0,,1,,,1280.4799999999816,45,,1429.8072222221979,1315.8649999999907,7.0,19,0.0,,6578551.0,,,DS-SR,0.0,985093,294,,ts-trial-spatial-rotation,
2,608.0150462584536,,1718.75_45854,1562.825000000031,111.0,,1,,,1347.5100000000093,47,,1628.4883333333225,1512.6224999999395,7.0,19,0.0,,6578551.0,,,SR-SS,2.0,1081151,324,,ts-trial-spatial-span,
0,425.71292957616015,1.0,1718.75_45854,1641.5274999999674,132.0,,1,,,2050.034999999916,56,,1710.6966666666947,1849.035000000149,8.0,19,2.0,,6578551.0,,,NONE-DS,2.0,1224217,366,,ts-trial-digit-span,
1,446.9550430860471,,1718.75_45854,2014.0666666667287,117.0,,1,,,2585.880000000121,54,,1744.8850000000093,1706.3800000000047,8.0,19,0.0,,6578551.0,,,DS-SR,2.0,1121710,336,,ts-trial-spatial-rotation,
2,464.4255492609364,,1718.75_45854,1652.0783333333677,123.0,,1,,,1680.0700000000654,53,,1607.1450000000186,1570.8900000001306,8.0,19,0.0,,6578551.0,,,SR-SS,1.0,1165587,348,,ts-trial-spatial-span,
0,790.6153909636287,,1830_2921,2141.0,1.0,,0,1.0,,2744.0,0,,1656.875,1659.5,0.0,22,2.0,,,,,SR-SS,0.0,40236,5,,ts-trial-spatial-rotation,
0,518.9951830219621,1.0,1830_2921,1892.0,9.0,,1,,,1988.0,0,,1530.0,1788.0,1.0,22,2.0,,,,,NONE-DS,2.0,93674,21,,ts-trial-digit-span,
1,535.6563397232542,1.0,1830_2921,1747.0,42.0,,1,,,1417.0,8,,1786.0,1575.5,1.0,22,2.0,,,,,DS-SR,2.0,320711,93,,ts-trial-spatial-rotation,
2,694.762929190798,1.0,1830_2921,2064.0,14.0,,1,,,1983.0,0,,1455.5555555555557,1347.0,1.0,22,2.0,,,,,SR-SS,2.0,130107,33,,ts-trial-spatial-span,
0,616.4586766361554,,1830_2921,1360.6666666666667,23.0,,1,,,1292.0,5,,1327.4,1292.0,2.0,22,2.0,,,,,NONE-DS,0.0,191781,51,,ts-trial-digit-span,
1,270.1812883443792,,1830_2921,1519.3333333333333,74.0,,1,,,1407.0,16,,1300.25,1362.0,2.0,22,0.0,,,,,DS-SR,2.0,537919,159,,ts-trial-spatial-rotation,
2,479.9243343139278,,1830_2921,1263.3333333333333,28.0,,1,,,1362.0,9,,1089.8333333333333,1056.5,2.0,22,1.0,,,,,SR-SS,2.0,224610,63,,ts-trial-spatial-span,
0,584.0966009879824,1.0,1830_2921,1127.6666666666667,34.0,,1,,,1900.0,10,,1083.625,762.0,3.0,22,1.0,,,,,NONE-DS,1.0,268288,75,,ts-trial-digit-span,
1,405.1853896674953,,1830_2921,1062.6666666666667,88.0,,1,,,1074.0,24,,1291.0,1141.5,3.0,22,0.0,,,,,DS-SR,2.0,630472,187,,ts-trial-spatial-rotation,
2,422.74253393762024,1.0,1830_2921,1172.0,50.0,,1,,,1158.0,15,,1265.3333333333333,1158.0,3.0,22,0.0,,,,,SR-SS,0.0,377741,109,,ts-trial-spatial-span,
0,576.9426190829429,1.0,1830_2921,1552.3333333333333,59.0,,1,,,945.0,18,,1218.75,1011.5,4.0,22,1.0,,,,,NONE-DS,1.0,437742,127,,ts-trial-digit-span,
1,661.3569249224333,1.0,1830_2921,1065.0,100.0,,1,,,1208.0,30,,1358.125,1214.0,4.0,22,0.0,,,,,DS-SR,0.0,706132,212,,ts-trial-spatial-rotation,
2,649.7488525796498,1.0,1830_2921,960.0,67.0,,1,,,867.0,24,,1360.7142857142858,1161.0,4.0,22,2.0,,,,,SR-SS,2.0,480758,143,,ts-trial-spatial-span,
0,359.739767053908,1.0,1830_2921,1318.0,82.0,,1,,,1294.0,26,,1455.5,1410.5,5.0,22,1.0,,,,,NONE-DS,1.0,593626,175,,ts-trial-digit-span,
1,733.7622230668461,1.0,1830_2921,1786.3333333333333,132.0,,1,,,1229.0,38,,1593.0,1471.0,5.0,22,1.0,,,,,DS-SR,1.0,920848,278,,ts-trial-spatial-rotation,
2,359.09924513585776,,1830_2921,896.0,108.0,,1,,,849.0,31,,1192.375,1119.0,5.0,22,1.0,,,,,SR-SS,0.0,759860,228,,ts-trial-spatial-span,
0,114.3241006962224,,1830_2921,1486.0,94.0,,1,,,1425.0,32,,1425.0,1446.5,6.0,22,1.0,,,,,NONE-DS,2.0,672766,200,,ts-trial-digit-span,
1,485.1134575196473,,1830_2921,1193.6666666666667,146.0,,1,,,803.0,45,,1379.6666666666667,1389.0,6.0,22,2.0,,,,,DS-SR,1.0,1028075,310,,ts-trial-spatial-rotation,
2,620.938920391646,1.0,1830_2921,1724.0,124.0,,1,,,1313.0,39,,1632.0,1459.0,6.0,22,0.0,,,,,SR-SS,0.0,864067,262,,ts-trial-spatial-span,
0,354.3487991069977,,1830_2921,1391.6666666666667,116.0,,1,,,1038.0,38,,1358.25,1241.5,7.0,22,0.0,,,,,NONE-DS,1.0,811422,244,,ts-trial-digit-span,
1,422.3948516664067,,1830_2921,1583.3333333333333,161.0,,1,,,2209.0,51,,1693.375,1641.0,7.0,22,0.0,,,,,DS-SR,2.0,1132769,340,,ts-trial-spatial-rotation,
2,592.0787431543529,,1830_2921,1462.6666666666667,139.0,,1,,,884.0,47,,1457.7142857142858,1397.0,7.0,22,1.0,,,,,SR-SS,2.0,975066,294,,ts-trial-spatial-span,
0,485.6473343212473,,1830_2921,1677.3333333333333,169.0,,1,,,1558.0,46,,1690.0,1625.0,8.0,22,0.0,,,,,NONE-DS,2.0,1190588,358,,ts-trial-digit-span,
1,433.1547067734576,1.0,1830_2921,810.5,176.0,,1,,,923.0,59,,1052.0,923.0,8.0,22,1.0,,,,,DS-SR,1.0,1234649,374,,ts-trial-spatial-rotation,
2,810.6264552801124,,1830_2921,2176.6666666666665,152.0,,1,,,1128.0,54,,1831.6666666666667,2106.0,8.0,22,1.0,,,,,SR-SS,0.0,1072056,322,,ts-trial-spatial-span,
0,402.5023228888893,,1975.4950000206009_98708,1532.3916666666628,1.0,,0,1.0,,2175.1849999999977,0,,1532.8985714285725,1462.3300000000165,0.0,24,0.0,,6496471.0,,,SR-SS,1.0,133061,5,,ts-trial-spatial-span,
0,570.3672749328111,1.0,1975.4950000206009_98708,1824.1900000000023,8.0,,1,,,1233.3500000000058,0,,1761.6985714285734,1481.765000000014,1.0,24,2.0,,6496471.0,,,NONE-DS,2.0,187302,21,,ts-trial-digit-span,
1,335.42424964512855,1.0,1975.4950000206009_98708,1985.5800000000065,15.0,,1,,,2157.735000000015,0,,2152.8499999999985,2155.8650000000052,1.0,24,0.0,,6496471.0,,,DS-SR,0.0,229718,35,,ts-trial-spatial-rotation,
2,581.4931765502797,1.0,1975.4950000206009_98708,2072.4183333333153,31.0,,1,,,1809.5999999999767,7,,1981.754375000004,1769.1774999999907,1.0,24,2.0,,6496471.0,,,SR-SS,2.0,338115,69,,ts-trial-spatial-span,
0,254.56808135736864,1.0,1975.4950000206009_98708,1578.1466666666674,23.0,,1,,,1409.8699999999951,7,,1688.6756250000035,1740.3600000000151,2.0,24,2.0,,6496471.0,,,NONE-DS,2.0,285237,51,,ts-trial-digit-span,
1,318.35983658362073,,1975.4950000206009_98708,2445.2100000000014,39.0,,1,,,2001.054999999993,8,,2299.091875000013,2350.4150000000373,2.0,24,2.0,,6496471.0,,,DS-SR,0.0,398744,87,,ts-trial-spatial-rotation,
2,211.39155085806027,,1975.4950000206009_98708,2560.4833333332986,53.0,,1,,,2579.834999999963,15,,2522.379166666651,2550.8074999999662,2.0,24,1.0,,6496471.0,,,SR-SS,0.0,498353,119,,ts-trial-spatial-span,
0,600.3025192913115,1.0,1975.4950000206009_98708,2167.0016666666684,47.0,,1,,,2626.3800000000047,15,,2183.127500000012,2289.7399999999907,3.0,24,0.0,,6496471.0,,,NONE-DS,0.0,451426,103,,ts-trial-digit-span,
1,493.6074704746229,,1975.4950000206009_98708,2123.625,75.0,,1,,,2691.785000000033,16,,1852.4899999999907,1872.6999999999532,3.0,24,1.0,,6496471.0,,,DS-SR,2.0,634101,163,,ts-trial-spatial-rotation,
2,385.3557383197351,1.0,1975.4950000206009_98708,1869.0616666666076,68.0,,1,,,1450.1049999999814,21,,1810.6985714285236,1886.564999999944,3.0,24,1.0,,6496471.0,,,SR-SS,1.0,585780,149,,ts-trial-spatial-span,
0,476.70504197726666,1.0,1975.4950000206009_98708,1694.5749999999534,59.0,,1,,,1559.8349999999627,21,,1891.3655555555467,1841.739999999991,4.0,24,1.0,,6496471.0,,,NONE-DS,1.0,537475,131,,ts-trial-digit-span,
1,297.34093289444894,1.0,1975.4950000206009_98708,1739.9066666666185,99.0,,1,,,1480.439999999944,23,,1677.579374999972,1604.8175000000049,4.0,24,0.0,,6496471.0,,,DS-SR,0.0,795129,212,,ts-trial-spatial-rotation,
2,619.139924696169,,1975.4950000206009_98708,2306.0783333333675,82.0,,1,,,1233.9000000000233,28,,1912.3044444444433,1612.1550000000282,4.0,24,0.0,,6496471.0,,,SR-SS,2.0,684946,177,,ts-trial-spatial-span,
0,525.3119115939435,1.0,1975.4950000206009_98708,2113.398333333355,91.0,,1,,,2811.0999999999767,30,,2252.0362500000338,2351.4400000000605,5.0,24,0.0,,6496471.0,,,NONE-DS,0.0,747587,195,,ts-trial-digit-span,
1,258.882422729323,1.0,1975.4950000206009_98708,1850.4216666666714,129.0,,1,,,1839.7550000000049,31,,2009.9712500000023,1973.1374999999532,5.0,24,0.0,,6496471.0,,,DS-SR,0.0,997558,274,,ts-trial-spatial-rotation,
2,282.82244759195646,,1975.4950000206009_98708,1973.9700000000496,107.0,,1,,,1880.1950000000647,37,,1872.7392857142925,1875.114999999991,5.0,24,0.0,,6496471.0,,,SR-SS,1.0,856624,230,,ts-trial-spatial-span,
0,443.9683398380785,1.0,1975.4950000206009_98708,2173.0050000000047,114.0,,1,,,2287.219999999972,38,,2278.969285714307,2325.4400000000605,6.0,24,0.0,,6496471.0,,,NONE-DS,0.0,903005,244,,ts-trial-digit-span,
1,612.5368049954984,,1975.4950000206009_98708,1388.9466666667722,142.0,,1,,,1552.9200000001583,39,,1917.6491666667087,1894.0350000000326,6.0,24,1.0,,6496471.0,,,DS-SR,2.0,1088471,302,,ts-trial-spatial-rotation,
2,323.4921561645486,,1975.4950000206009_98708,1576.5483333333395,121.0,,1,,,1509.1450000000186,44,,1755.2599999999948,1639.7700000000186,6.0,24,0.0,,6496471.0,,,SR-SS,2.0,940562,258,,ts-trial-spatial-span,
0,634.9493688239958,1.0,1975.4950000206009_98708,1977.6299999999658,137.0,,1,,,1157.9299999999346,45,,1797.4519999999552,1949.9849999998694,7.0,24,0.0,,6496471.0,,,NONE-DS,0.0,1052000,290,,ts-trial-digit-span,
1,532.1639864803625,1.0,1975.4950000206009_98708,1628.8500000000156,155.0,,1,,,1802.4500000001865,45,,1858.2733333333163,1765.5900000000838,7.0,24,0.0,,6496471.0,,,DS-SR,0.0,1183166,328,,ts-trial-spatial-rotation,
2,338.1707519983862,,1975.4950000206009_98708,1477.2716666666481,148.0,,1,,,1601.2150000000836,52,,1539.1928571428039,1552.4699999999718,7.0,24,1.0,,6496471.0,,,SR-SS,0.0,1132893,314,,ts-trial-spatial-span,
0,596.5235236854055,,1975.4950000206009_98708,2398.978333333352,161.0,,1,,,2895.344999999972,50,,2213.5799999999967,2322.547499999986,8.0,24,2.0,,6496471.0,,,NONE-DS,1.0,1220922,340,,ts-trial-digit-span,
1,432.8405785208958,1.0,1975.4950000206009_98708,1495.0866666667473,167.0,,1,,,1937.2550000001208,51,,1632.7600000000093,1527.4349999999395,8.0,24,2.0,,6496471.0,,,DS-SR,2.0,1257197,354,,ts-trial-spatial-rotation,
2,307.51716586235517,1.0,1975.4950000206009_98708,2383.8750000001164,175.0,,1,,,2265.215000000084,59,,2228.750000000058,2310.5250000000233,8.0,24,0.0,,6496471.0,,,SR-SS,0.0,1311072,370,,ts-trial-spatial-span,
0,690.402418883364,1.0,217_86855,1987.0,1.0,,0,1.0,,2771.0,0,,1911.6666666666667,1711.0,0.0,20,2.0,,6528133.0,,,SR-SS,2.0,39096,5,,ts-trial-digit-span,
0,697.1351921904934,1.0,217_86855,2013.0,33.0,,1,,,2945.0,9,,2068.1428571428573,1823.0,1.0,20,0.0,,6528133.0,,,NONE-DS,0.0,272213,75,,ts-trial-digit-span,
1,238.32327234841574,1.0,217_86855,2359.3333333333335,18.0,,1,,,2459.0,0,,2253.375,2319.5,1.0,20,0.0,,6528133.0,,,DS-SR,0.0,151288,41,,ts-trial-spatial-rotation,
2,672.5473960993381,1.0,217_86855,2195.6666666666665,10.0,,1,,,1955.0,0,,1936.5,1831.5,1.0,20,2.0,,6528133.0,,,SR-SS,2.0,87452,23,,ts-trial-spatial-span,
0,489.83729076967126,1.0,217_86855,2233.0,49.0,,1,,,1578.0,16,,2190.285714285714,2107.0,2.0,20,1.0,,6528133.0,,,NONE-DS,1.0,381701,109,,ts-trial-digit-span,
1,317.3147753677201,,217_86855,1952.6666666666667,56.0,,1,,,1736.0,8,,1755.6666666666667,1740.5,2.0,20,1.0,,6528133.0,,,DS-SR,2.0,423316,123,,ts-trial-spatial-rotation,
2,557.3340880605507,,217_86855,1298.0,26.0,,1,,,972.0,8,,1728.4285714285713,1856.0,2.0,20,1.0,,6528133.0,,,SR-SS,0.0,208733,57,,ts-trial-spatial-span,
0,613.4485036795401,,217_86855,1842.3333333333333,62.0,,1,,,973.0,23,,1622.6666666666667,1678.0,3.0,20,2.0,,6528133.0,,,NONE-DS,1.0,462418,135,,ts-trial-digit-span,
1,454.1310016577449,1.0,217_86855,1810.0,74.0,,1,,,1233.0,14,,1807.8333333333333,1819.5,3.0,20,0.0,,6528133.0,,,DS-SR,0.0,557547,165,,ts-trial-spatial-rotation,
2,496.066471800347,1.0,217_86855,1771.6666666666667,40.0,,1,,,2748.0,15,,1846.2222222222222,1715.0,3.0,20,0.0,,6528133.0,,,SR-SS,0.0,319629,91,,ts-trial-spatial-span,
0,327.2068662686242,1.0,217_86855,1549.0,86.0,,1,,,1261.0,29,,1638.6666666666667,1818.0,4.0,20,2.0,,6528133.0,,,NONE-DS,2.0,643498,191,,ts-trial-digit-span,
1,470.67044379976386,,217_86855,1744.6666666666667,94.0,,1,,,2036.0,20,,2007.3333333333333,2042.5,4.0,20,2.0,,6528133.0,,,DS-SR,1.0,734154,220,,ts-trial-spatial-rotation,
2,581.6258820467557,,217_86855,1318.3333333333333,68.0,,1,,,1608.0,24,,1512.3333333333333,1405.5,4.0,20,2.0,,6528133.0,,,SR-SS,0.0,503631,149,,ts-trial-spatial-span,
0,399.2748426835831,,217_86855,1671.0,100.0,,1,,,1418.0,32,,1672.0,1697.0,5.0,20,1.0,,6528133.0,,,NONE-DS,2.0,773379,232,,ts-trial-digit-span,
1,167.7844422096967,1.0,217_86855,2061.6666666666665,106.0,,1,,,1956.0,26,,2066.5714285714284,2115.0,5.0,20,0.0,,6528133.0,,,DS-SR,0.0,815637,248,,ts-trial-spatial-rotation,
2,144.93412296626354,1.0,217_86855,2013.3333333333333,80.0,,1,,,2041.0,30,,1997.5,1999.5,5.0,20,1.0,,6528133.0,,,SR-SS,1.0,605527,179,,ts-trial-spatial-span,
0,649.0715420249657,,217_86855,2055.6666666666665,120.0,,1,,,2946.0,38,,1813.6666666666667,1700.0,6.0,20,0.0,,6528133.0,,,NONE-DS,2.0,911030,276,,ts-trial-digit-span,
1,316.9983475997192,1.0,217_86855,2620.0,126.0,,1,,,2594.0,33,,2510.4285714285716,2594.0,6.0,20,1.0,,6528133.0,,,DS-SR,1.0,942624,288,,ts-trial-spatial-rotation,
2,371.4649377801356,1.0,217_86855,1645.0,89.0,,1,,,1672.0,36,,1757.8,1672.0,6.0,20,0.0,,6528133.0,,,SR-SS,0.0,675694,204,,ts-trial-spatial-span,
0,486.15780433341365,,217_86855,1611.3333333333333,133.0,,1,,,923.0,44,,1922.625,2109.5,7.0,20,1.0,,6528133.0,,,NONE-DS,2.0,996163,304,,ts-trial-digit-span,
1,325.64443799948435,,217_86855,2208.6666666666665,141.0,,1,,,1947.0,40,,2029.4,1949.0,7.0,20,0.0,,6528133.0,,,DS-SR,2.0,1049676,322,,ts-trial-spatial-rotation,
2,568.876001218108,,217_86855,2227.6666666666665,113.0,,1,,,2164.0,41,,1906.2857142857142,2064.0,7.0,20,2.0,,6528133.0,,,SR-SS,1.0,864958,262,,ts-trial-spatial-span,
0,311.9236017574389,1.0,217_86855,1246.0,158.0,,1,,,942.0,52,,1205.6666666666667,1125.0,8.0,20,2.0,,6528133.0,,,NONE-DS,2.0,1192463,364,,ts-trial-digit-span,
1,683.798362092218,,217_86855,2169.0,153.0,,1,,,2556.0,45,,2009.8,2398.0,8.0,20,2.0,,6528133.0,,,DS-SR,0.0,1150227,352,,ts-trial-spatial-rotation,
2,358.7791468166401,1.0,217_86855,1810.3333333333333,146.0,,1,,,1764.0,48,,1650.142857142857,1676.0,8.0,20,0.0,,6528133.0,,,SR-SS,0.0,1090609,334,,ts-trial-spatial-span,
0,548.0360085493166,,232_72278,2156.0,1.0,,0,1.0,,1779.0,0,,2481.3333333333335,2760.5,0.0,19,2.0,,21.0,,,SR-SS,1.0,60326,7,,ts-trial-digit-span,
0,515.2165980023768,1.0,232_72278,2676.6666666666665,12.0,,1,,,2169.0,6,,2330.1428571428573,2353.0,1.0,19,2.0,,21.0,,,NONE-DS,2.0,144715,33,,ts-trial-digit-span,
1,300.74790107330756,,232_72278,2117.0,7.0,,1,,,1734.0,0,,2066.6,2168.0,1.0,19,2.0,,21.0,,,DS-SR,0.0,102595,21,,ts-trial-spatial-rotation,
2,537.5763201630072,,232_72278,2440.3333333333335,19.0,,1,,,2659.0,0,,2520.5,2679.5,1.0,19,2.0,,21.0,,,SR-SS,1.0,197004,51,,ts-trial-spatial-span,
0,519.3501261879394,1.0,232_72278,1765.0,25.0,,1,,,1317.0,13,,1770.375,1671.0,2.0,19,1.0,,21.0,,,NONE-DS,1.0,236364,63,,ts-trial-digit-span,
1,728.6769021848969,1.0,232_72278,1319.0,33.0,,1,,,2045.0,5,,1961.4444444444443,1870.0,2.0,19,0.0,,21.0,,,DS-SR,0.0,280523,79,,ts-trial-spatial-rotation,
2,290.17454722484337,1.0,232_72278,1821.3333333333333,51.0,,1,,,2069.0,6,,1837.125,1874.5,2.0,19,1.0,,21.0,,,SR-SS,1.0,392392,115,,ts-trial-spatial-span,
0,280.26881937010245,,232_72278,2050.0,42.0,,1,,,2303.0,21,,2109.8888888888887,2005.0,3.0,19,0.0,,21.0,,,NONE-DS,1.0,340162,97,,ts-trial-digit-span,
1,442.4303550250808,,232_72278,2441.0,59.0,,1,,,2859.0,14,,2386.5714285714284,2263.0,3.0,19,2.0,,21.0,,,DS-SR,1.0,447261,131,,ts-trial-spatial-rotation,
2,613.2828913005031,,232_72278,1981.0,66.0,,1,,,2663.0,14,,2235.285714285714,2054.0,3.0,19,2.0,,21.0,,,SR-SS,0.0,494272,145,,ts-trial-spatial-span,
0,455.24496937677094,,232_72278,1725.0,85.0,,1,,,1654.0,30,,1947.375,1983.0,4.0,19,1.0,,21.0,,,NONE-DS,2.0,639920,185,,ts-trial-digit-span,
1,131.19641763401927,,232_72278,1742.3333333333333,73.0,,1,,,1624.0,21,,1768.0,1742.0,4.0,19,1.0,,21.0,,,DS-SR,2.0,552831,161,,ts-trial-spatial-rotation,
2,522.9351229905511,,232_72278,2132.6666666666665,78.0,,1,,,2305.0,21,,1631.142857142857,1529.0,4.0,19,0.0,,21.0,,,SR-SS,2.0,590960,171,,ts-trial-spatial-span,
0,500.16811459462593,1.0,232_72278,1031.6666666666667,101.0,,1,,,1362.0,38,,1239.142857142857,991.0,5.0,19,1.0,,21.0,,,NONE-DS,1.0,743209,218,,ts-trial-digit-span,
1,483.0267664869693,,232_72278,1448.0,93.0,,1,,,1707.0,26,,1608.5,1557.0,5.0,19,1.0,,21.0,,,DS-SR,0.0,687110,202,,ts-trial-spatial-rotation,
2,311.45488093324667,1.0,232_72278,1055.0,125.0,,1,,,939.0,28,,1103.142857142857,968.0,5.0,19,1.0,,21.0,,,SR-SS,1.0,887687,266,,ts-trial-spatial-span,
0,288.8888194444361,1.0,232_72278,1351.0,116.0,,1,,,1605.0,45,,1311.0,1347.0,6.0,19,2.0,,21.0,,,NONE-DS,2.0,838128,248,,ts-trial-digit-span,
1,300.27594451960823,1.0,232_72278,1510.0,108.0,,1,,,1766.0,34,,1193.75,1097.5,6.0,19,0.0,,21.0,,,DS-SR,0.0,785598,232,,ts-trial-spatial-rotation,
2,478.0253654357685,1.0,232_72278,1617.0,141.0,,1,,,1466.0,35,,1626.25,1617.0,6.0,19,1.0,,21.0,,,SR-SS,1.0,984406,298,,ts-trial-spatial-span,
0,350.83285827362926,,232_72278,824.0,132.0,,1,,,1293.0,54,,1026.7777777777778,1071.0,7.0,19,1.0,,21.0,,,NONE-DS,0.0,934877,280,,ts-trial-digit-span,
0,406.9719162383257,1.0,236.19000000007873_6858,2206.5299999999966,1.0,,0,1.0,,2467.1849999999977,0,,2064.8118749999967,1944.0649999999948,0.0,20,1.0,,6529774.0,,,NONE-DS,1.0,51016,5,,ts-trial-spatial-rotation,
0,521.1199404207962,1.0,236.19000000007873_6858,2278.0866666666507,8.0,,1,,,2947.869999999996,0,,2151.4891666666467,2150.569999999978,1.0,20,1.0,,6529774.0,,,NONE-DS,1.0,274880,69,,ts-trial-digit-span,
1,324.9306348366643,,236.19000000007873_6858,2046.2666666666726,2.0,,1,,,2329.835000000021,8,,2275.9037500000013,2367.6725000000006,1.0,20,2.0,,6529774.0,,,DS-SR,1.0,178076,41,,ts-trial-spatial-rotation,
2,515.8370073361424,,236.19000000007873_6858,2071.516666666663,2.0,,1,,,2308.5800000000017,0,,2277.673333333333,2308.5800000000017,1.0,20,1.0,,6529774.0,,,SR-SS,0.0,115120,23,,ts-trial-spatial-span,
0,410.1665335375116,1.0,236.19000000007873_6858,2207.3650000000102,22.0,,1,,,1709.984999999986,6,,2129.910833333328,2177.997499999997,2.0,20,2.0,,6529774.0,,,NONE-DS,2.0,372836,101,,ts-trial-digit-span,
1,284.4232653211673,1.0,236.19000000007873_6858,2439.0333333333256,28.0,,1,,,2603.835000000021,16,,2520.8335714285577,2494.329999999958,2.0,20,1.0,,6529774.0,,,DS-SR,1.0,409324,113,,ts-trial-spatial-rotation,
2,615.370843300346,1.0,236.19000000007873_6858,2317.9700000000107,3.0,,1,,,2336.0899999999965,9,,2267.7108333333454,2309.782500000001,2.0,20,1.0,,6529774.0,,,SR-SS,1.0,231678,57,,ts-trial-spatial-span,
0,244.81397854631052,1.0,236.19000000007873_6858,2544.3950000000186,35.0,,1,,,2609.040000000037,12,,2324.895000000002,2261.459999999963,3.0,20,0.0,,6529774.0,,,NONE-DS,0.0,455075,127,,ts-trial-digit-span,
1,250.6913748650047,1.0,236.19000000007873_6858,2062.9200000000033,47.0,,1,,,1734.1799999999346,23,,2145.189374999987,2198.309999999997,3.0,20,2.0,,6529774.0,,,DS-SR,2.0,537509,153,,ts-trial-spatial-rotation,
2,307.2963881108723,1.0,236.19000000007873_6858,1842.5349999999937,14.0,,1,,,2011.2900000000373,15,,1976.2743749999936,2037.570000000007,3.0,20,0.0,,6529774.0,,,SR-SS,0.0,319721,85,,ts-trial-spatial-span,
0,250.0521493208982,1.0,236.19000000007873_6858,2064.1100000000247,69.0,,1,,,2331.0200000000186,19,,2092.019999999999,1979.0100000000093,4.0,20,1.0,,6529774.0,,,NONE-DS,1.0,702115,200,,ts-trial-digit-span,
1,103.36123458127763,1.0,236.19000000007873_6858,1923.3316666666651,63.0,,1,,,1922.7199999999718,31,,1960.5741666666581,1995.5175000000163,4.0,20,1.0,,6529774.0,,,DS-SR,1.0,655496,187,,ts-trial-spatial-rotation,
2,598.156428959035,,236.19000000007873_6858,2136.3449999999916,42.0,,1,,,2379.9249999999884,23,,2241.7010000000128,2379.9249999999884,4.0,20,1.0,,6529774.0,,,SR-SS,2.0,497723,141,,ts-trial-spatial-span,
0,87.54248362934851,,236.19000000007873_6858,2323.1333333333023,82.0,,1,,,2324.989999999991,25,,2391.6399999999558,2398.304999999935,5.0,20,1.0,,6529774.0,,,NONE-DS,2.0,802257,232,,ts-trial-digit-span,
1,468.98714395901595,1.0,236.19000000007873_6858,2226.793333333335,88.0,,1,,,2163.844999999972,37,,2311.417857142864,2163.844999999972,5.0,20,2.0,,6529774.0,,,DS-SR,2.0,836373,244,,ts-trial-spatial-rotation,
2,482.2508191427221,1.0,236.19000000007873_6858,2524.7466666667024,55.0,,1,,,2216.350000000093,28,,2300.0481250000303,2410.2550000000047,5.0,20,0.0,,6529774.0,,,SR-SS,0.0,595226,169,,ts-trial-spatial-span,
0,418.28535292243447,1.0,236.19000000007873_6858,1960.7833333333645,95.0,,1,,,1711.1100000001024,31,,2118.992222222254,2100.9599999999627,6.0,20,0.0,,6529774.0,,,NONE-DS,0.0,881492,258,,ts-trial-digit-span,
1,337.13060451932415,,236.19000000007873_6858,1912.1333333333798,104.0,,1,,,2136.719999999972,44,,1943.154285714313,2078.2200000000885,6.0,20,2.0,,6529774.0,,,DS-SR,0.0,933715,276,,ts-trial-spatial-rotation,
2,258.1447845017763,1.0,236.19000000007873_6858,2098.338333333338,75.0,,1,,,2251.469999999972,36,,2303.8671428571356,2251.469999999972,6.0,20,1.0,,6529774.0,,,SR-SS,1.0,738877,212,,ts-trial-spatial-span,
0,457.82317742642624,1.0,236.19000000007873_6858,1916.4833333333565,111.0,,1,,,2573.3050000000508,40,,2135.36437499999,2156.484999999986,7.0,20,1.0,,6529774.0,,,NONE-DS,1.0,983085,290,,ts-trial-digit-span,
1,351.6643254446787,1.0,236.19000000007873_6858,2364.9300000000126,127.0,,1,,,2973.125,51,,2371.8628571428626,2435.75,7.0,20,0.0,,6529774.0,,,DS-SR,0.0,1085855,322,,ts-trial-spatial-rotation,
2,493.1980484836647,1.0,236.19000000007873_6858,1923.7783333333598,119.0,,1,,,1421.1450000000186,43,,2125.5218749999767,2175.0950000000303,7.0,20,1.0,,6529774.0,,,SR-SS,1.0,1027524,306,,ts-trial-spatial-span,
0,371.53866942309577,1.0,236.19000000007873_6858,1931.2433333334047,141.0,,1,,,1721.9750000000934,48,,1889.031666666696,1864.7500000001169,8.0,20,2.0,,6529774.0,,,NONE-DS,2.0,1188542,352,,ts-trial-digit-span,
1,193.63264491028423,1.0,236.19000000007873_6858,2044.7674999999579,147.0,,1,,,1875.4450000000647,58,,1990.5349999999935,1882.0700000000647,8.0,20,0.0,,6529774.0,,,DS-SR,0.0,1222561,364,,ts-trial-spatial-rotation,
2,473.14211428189395,1.0,236.19000000007873_6858,2232.1499999999846,134.0,,1,,,1749.3249999999537,51,,2331.1071428571095,2370.149999999907,8.0,20,1.0,,6529774.0,,,SR-SS,1.0,1139816,338,,ts-trial-spatial-span,
0,372.85702860288666,1.0,251.67000001238193_90175,2281.1666666666715,1.0,,0,1.0,,2487.415000000008,0,,2361.595714285716,2487.415000000008,0.0,20,1.0,,6532944.0,,,SR-SS,1.0,95095,5,,ts-trial-digit-span,
0,324.86516761284156,1.0,251.67000001238193_90175,1864.4433333333388,5.0,,1,,,1737.4000000000233,7,,2017.9868750000023,1927.9649999999965,1.0,20,2.0,,6532944.0,,,NONE-DS,2.0,414560,101,,ts-trial-digit-span,
1,393.3068192445785,,251.67000001238193_90175,2315.718333333333,3.0,,1,,,2723.9349999999977,0,,2193.6414285714313,2255.919999999984,1.0,20,0.0,,6532944.0,,,DS-SR,2.0,179695,33,,ts-trial-spatial-rotation,
2,566.2879402815736,1.0,251.67000001238193_90175,1888.992499999993,3.0,,1,,,1787.7999999999884,0,,2210.6766666666663,1990.1849999999977,1.0,20,1.0,,6532944.0,,,SR-SS,1.0,145471,23,,ts-trial-spatial-span,
0,177.1256865523986,1.0,251.67000001238193_90175,2125.6633333333107,9.0,,1,,,1883.585000000021,15,,2026.2383333333128,1946.9524999999558,2.0,20,1.0,,6532944.0,,,NONE-DS,1.0,516603,135,,ts-trial-digit-span,
1,289.6888143428216,,251.67000001238193_90175,2489.6466666666674,4.0,,1,,,2243.3300000000163,7,,2476.806249999994,2397.1149999999907,2.0,20,2.0,,6532944.0,,,DS-SR,0.0,267991,59,,ts-trial-spatial-rotation,
2,617.0724592217574,1.0,251.67000001238193_90175,2287.5666666666707,3.0,,1,,,2521.0950000000007,3,,1986.320000000007,1850.6300000000047,2.0,20,2.0,,6532944.0,,,SR-SS,2.0,227111,47,,ts-trial-spatial-span,
0,379.06883099793754,1.0,251.67000001238193_90175,2035.7516666666295,12.0,,1,,,1889.2249999999767,21,,2051.5341666666595,1990.9425000000047,3.0,20,2.0,,6532944.0,,,NONE-DS,2.0,649301,177,,ts-trial-digit-span,
1,253.58320945501288,1.0,251.67000001238193_90175,1979.36500000001,5.0,,1,,,2350.0200000000186,15,,2008.4940000000176,1907.390000000014,3.0,20,0.0,,6532944.0,,,DS-SR,0.0,375668,89,,ts-trial-spatial-rotation,
2,433.6019790166282,,251.67000001238193_90175,2448.0233333333163,5.0,,1,,,2393.1300000000047,9,,2345.287857142859,2393.1300000000047,3.0,20,1.0,,6532944.0,,,SR-SS,0.0,325231,75,,ts-trial-spatial-span,
0,510.87996017900554,1.0,251.67000001238193_90175,2528.2233333333475,16.0,,1,,,2202.1600000000326,27,,2044.793749999997,2132.9124999999767,4.0,20,1.0,,6532944.0,,,NONE-DS,1.0,726726,202,,ts-trial-digit-span,
1,498.2447071625146,,251.67000001238193_90175,1828.2166666666744,11.0,,1,,,936.7900000000373,20,,1869.2421428571522,2010.25,4.0,20,1.0,,6532944.0,,,DS-SR,2.0,549942,147,,ts-trial-spatial-rotation,
2,302.24119103628345,,251.67000001238193_90175,1934.529999999989,8.0,,1,,,1914.789999999979,16,,2007.8355555555577,1923.0900000000256,4.0,20,1.0,,6532944.0,,,SR-SS,2.0,457425,117,,ts-trial-spatial-span,
0,435.00003596473846,1.0,251.67000001238193_90175,2476.531666666657,19.0,,1,,,2849.0050000000047,35,,2357.163571428574,2233.980000000098,5.0,20,1.0,,6532944.0,,,NONE-DS,1.0,821786,232,,ts-trial-digit-span,
1,496.62781488756514,1.0,251.67000001238193_90175,1300.3700000000342,15.0,,1,,,1538.3450000000885,27,,1587.5800000000356,1508.7200000000885,5.0,20,2.0,,6532944.0,,,DS-SR,2.0,688482,190,,ts-trial-spatial-rotation,
2,473.8895601519122,1.0,251.67000001238193_90175,1742.2099999999627,12.0,,1,,,1677.5999999999767,25,,1445.3231249999953,1395.5675000000047,5.0,20,1.0,,6532944.0,,,SR-SS,1.0,597385,161,,ts-trial-spatial-span,
0,264.7602716115735,1.0,251.67000001238193_90175,2245.0266666666525,23.0,,1,,,2200.3349999999627,42,,2215.9828571428247,2189.9449999999492,6.0,20,1.0,,6532944.0,,,NONE-DS,1.0,930683,266,,ts-trial-digit-span,
1,414.2334735387689,1.0,251.67000001238193_90175,1538.8883333333458,17.0,,1,,,1773.9500000000698,33,,1706.334999999996,1773.9500000000698,6.0,20,1.0,,6532944.0,,,DS-SR,1.0,773241,218,,ts-trial-spatial-rotation,
2,261.713585101706,,251.67000001238193_90175,1475.154999999989,20.0,,1,,,1553.4100000000324,33,,1566.1162500000064,1517.657499999972,6.0,20,1.0,,6532944.0,,,SR-SS,0.0,875551,250,,ts-trial-spatial-span,
0,324.62499690303184,1.0,251.67000001238193_90175,2356.2533333333363,30.0,,1,,,2010.5999999999767,49,,2214.7124999999796,2229.382499999949,7.0,20,1.0,,6532944.0,,,NONE-DS,1.0,1014081,292,,ts-trial-digit-span,
1,319.0903355895759,,251.67000001238193_90175,1650.2083333333333,34.0,,1,,,1889.6750000000463,40,,1477.1399999999642,1589.0549999999346,7.0,20,1.0,,6532944.0,,,DS-SR,0.0,1061798,310,,ts-trial-spatial-rotation,
2,114.65881198871494,1.0,251.67000001238193_90175,1703.0033333333365,28.0,,1,,,1534.760000000009,41,,1703.0683333333193,1722.6474999999627,7.0,20,2.0,,6532944.0,,,SR-SS,2.0,972329,280,,ts-trial-spatial-span,
0,815.078124174824,1.0,251.67000001238193_90175,2045.7724999999627,49.0,,1,,,2659.260000000009,57,,2355.6033333332743,2659.260000000009,8.0,20,2.0,,6532944.0,,,NONE-DS,2.0,1212263,352,,ts-trial-digit-span,
1,426.8591024126029,1.0,251.67000001238193_90175,2272.1650000000373,44.0,,1,,,1937.370000000112,47,,2116.515000000037,2174.5649999999437,8.0,20,1.0,,6532944.0,,,DS-SR,1.0,1169523,340,,ts-trial-spatial-rotation,
2,565.8076229287602,,251.67000001238193_90175,1413.0950000000496,36.0,,1,,,819.5549999999347,47,,1725.827500000014,1796.4625000000233,8.0,20,0.0,,6532944.0,,,SR-SS,1.0,1112965,324,,ts-trial-spatial-span,
0,698.1224807459765,1.0,268.8400000006368_67932,2047.0350000000017,1.0,,0,1.0,,1580.4249999999995,0,,2034.8187499999995,2047.0350000000017,0.0,20,2.0,,6537959.0,,,SR-SS,2.0,34631,9,,ts-trial-digit-span,
0,449.1096275105045,1.0,268.8400000006368_67932,1469.6300000000047,13.0,,1,,,901.7799999999988,4,,1479.1814285714293,1464.165000000008,1.0,20,1.0,,6537959.0,,,NONE-DS,1.0,109483,33,,ts-trial-digit-span,
1,415.0334152494379,,268.8400000006368_67932,1715.0766666666702,20.0,,1,,,2174.9400000000023,0,,1308.1288888888894,1161.875,1.0,20,2.0,,6537959.0,,,DS-SR,1.0,146199,47,,ts-trial-spatial-rotation,
2,494.10982421493253,,268.8400000006368_67932,2220.3199999999974,5.0,,1,,,2006.3349999999994,0,,1659.4699999999993,1454.9099999999962,1.0,20,1.0,,6537959.0,,,SR-SS,0.0,57138,17,,ts-trial-spatial-span,
0,175.47686722796132,1.0,268.8400000006368_67932,1370.0216666666674,29.0,,1,,,1137.9850000000154,11,,1333.6021428571423,1365.7699999999895,2.0,20,2.0,,6537959.0,,,NONE-DS,2.0,206174,65,,ts-trial-digit-span,
1,197.5700888229395,,268.8400000006368_67932,964.9983333333317,43.0,,1,,,1009.7650000000141,9,,963.8224999999996,1017.8500000000058,2.0,20,2.0,,6537959.0,,,DS-SR,0.0,290803,93,,ts-trial-spatial-rotation,
2,447.3016033061256,1.0,268.8400000006368_67932,1177.2200000000012,36.0,,1,,,1294.2050000000165,8,,1236.0992857142826,1294.2050000000165,2.0,20,0.0,,6537959.0,,,SR-SS,0.0,244169,79,,ts-trial-spatial-span,
0,491.2746848420689,1.0,268.8400000006368_67932,1296.400000000004,69.0,,1,,,1220.195000000007,18,,1480.8950000000186,1432.0900000000256,3.0,20,1.0,,6537959.0,,,NONE-DS,1.0,510795,157,,ts-trial-digit-span,
1,421.20068523243975,,268.8400000006368_67932,943.5916666666744,57.0,,1,,,1209.0050000000047,15,,1252.850555555565,1206.75,3.0,20,2.0,,6537959.0,,,DS-SR,1.0,399180,125,,ts-trial-spatial-rotation,
2,356.80672830331207,1.0,268.8400000006368_67932,1171.7066666666844,49.0,,1,,,1192.8150000000023,15,,1092.3262499999983,1024.9249999999884,3.0,20,1.0,,6537959.0,,,SR-SS,1.0,338868,107,,ts-trial-spatial-span,
0,379.0884922526002,,268.8400000006368_67932,1291.9099999999935,85.0,,1,,,1367.1450000000184,25,,1232.2200000000053,1250.064999999944,4.0,20,0.0,,6537959.0,,,NONE-DS,2.0,619641,191,,ts-trial-digit-span,
1,260.95371291478637,,268.8400000006368_67932,1128.1649999999984,76.0,,1,,,856.1350000000093,24,,1039.7255555555328,988.2750000000232,4.0,20,1.0,,6537959.0,,,DS-SR,2.0,557866,173,,ts-trial-spatial-rotation,
2,770.2607031767144,,268.8400000006368_67932,1890.577500000014,66.0,,1,,,1123.9250000000468,23,,1847.5833333333333,1761.5949999999718,4.0,20,2.0,,6537959.0,,,SR-SS,1.0,469465,145,,ts-trial-spatial-span,
0,326.00740903974616,1.0,268.8400000006368_67932,1076.406666666696,105.0,,1,,,1243.560000000056,32,,1252.9371428571508,1243.560000000056,5.0,20,1.0,,6537959.0,,,NONE-DS,1.0,753649,232,,ts-trial-digit-span,
1,478.7736500102753,1.0,268.8400000006368_67932,1203.4566666666262,99.0,,1,,,1543.8199999999488,33,,1381.9341666666442,1289.8149999999441,5.0,20,1.0,,6537959.0,,,DS-SR,1.0,715719,220,,ts-trial-spatial-rotation,
2,643.8493792990674,1.0,268.8400000006368_67932,1973.1816666666807,92.0,,1,,,1348.5050000000047,26,,1762.3221428571435,1846.8050000000512,5.0,20,0.0,,6537959.0,,,SR-SS,0.0,664612,206,,ts-trial-spatial-span,
0,749.7863782720956,,268.8400000006368_67932,1431.2166666666747,128.0,,1,,,612.1149999999908,39,,1411.1418750000012,1428.2175000000282,6.0,20,1.0,,6537959.0,,,NONE-DS,2.0,913183,282,,ts-trial-digit-span,
1,454.0469420306724,,268.8400000006368_67932,911.251666666707,112.0,,1,,,1357.3250000000696,39,,1184.76062500001,1308.2074999999604,6.0,20,1.0,,6537959.0,,,DS-SR,2.0,790009,246,,ts-trial-spatial-rotation,
2,428.9965686405377,,268.8400000006368_67932,1534.424999999969,120.0,,1,,,1526.3549999999814,33,,1541.938749999972,1527.3250000000116,6.0,20,0.0,,6537959.0,,,SR-SS,2.0,850480,264,,ts-trial-spatial-span,
0,474.5911919932,,268.8400000006368_67932,1286.6483333333163,142.0,,1,,,1308.0249999999069,47,,1531.2924999999814,1627.977499999979,7.0,20,1.0,,6537959.0,,,NONE-DS,0.0,1010621,314,,ts-trial-digit-span,
1,434.7195102899081,1.0,268.8400000006368_67932,1580.846666666679,148.0,,1,,,1893.7949999999253,47,,1625.4433333333582,1807.432500000112,7.0,20,0.0,,6537959.0,,,DS-SR,0.0,1046718,326,,ts-trial-spatial-rotation,
2,607.4537628632049,1.0,268.8400000006368_67932,1503.236666666693,136.0,,1,,,1859.6900000000605,41,,1788.1933333333388,1678.835000000021,7.0,20,1.0,,6537959.0,,,SR-SS,1.0,964381,300,,ts-trial-spatial-span,
0,337.3767281788441,,268.8400000006368_67932,1546.089999999851,167.0,,1,,,1165.9449999998324,53,,1516.5549999999348,1487.0200000000186,8.0,20,1.0,,6537959.0,,,NONE-DS,2.0,1210352,372,,ts-trial-digit-span,
1,260.6540168636596,1.0,268.8400000006368_67932,1161.9899999999907,160.0,,1,,,1337.0,53,,1022.0278571427999,989.9849999998697,8.0,20,2.0,,6537959.0,,,DS-SR,2.0,1154241,356,,ts-trial-spatial-rotation,
2,249.93365260443025,,268.8400000006368_67932,1152.5883333332215,154.0,,1,,,1512.3349999999627,47,,1180.700833333268,1153.667499999865,8.0,20,2.0,,6537959.0,,,SR-SS,1.0,1110604,344,,ts-trial-spatial-span,
0,475.80216477019104,1.0,283.00000000000006_59779,1912.3333333333333,1.0,,0,1.0,,2208.0,0,,2017.2,2083.0,0.0,20,1.0,,6525710.0,,,SR-SS,1.0,64432,5,,ts-trial-spatial-rotation,
0,551.4496048295498,1.0,283.00000000000006_59779,1502.0,6.0,,1,,,1456.0,0,,2008.0,1958.0,1.0,20,2.0,,6525710.0,,,NONE-DS,2.0,102573,17,,ts-trial-digit-span,
1,773.503116624989,1.0,283.00000000000006_59779,2325.3333333333335,13.0,,1,,,1794.0,5,,1974.75,2066.5,1.0,20,2.0,,6525710.0,,,DS-SR,2.0,143731,31,,ts-trial-spatial-rotation,
2,409.7269997031124,,283.00000000000006_59779,1961.0,27.0,,1,,,2495.0,0,,1872.75,1886.0,1.0,20,2.0,,6525710.0,,,SR-SS,0.0,240698,61,,ts-trial-spatial-span,
0,521.0576423647068,,283.00000000000006_59779,2381.0,21.0,,1,,,2910.0,7,,2122.3333333333335,2116.5,2.0,20,2.0,,6525710.0,,,NONE-DS,1.0,206958,49,,ts-trial-digit-span,
1,478.52615161324024,,283.00000000000006_59779,1996.6666666666667,42.0,,1,,,1945.0,13,,1507.4444444444443,1507.0,2.0,20,0.0,,6525710.0,,,DS-SR,1.0,338662,91,,ts-trial-spatial-rotation,
2,387.6413797386887,,283.00000000000006_59779,1690.6666666666667,57.0,,1,,,2017.0,8,,1510.125,1376.0,2.0,20,2.0,,6525710.0,,,SR-SS,1.0,435088,121,,ts-trial-spatial-span,
0,463.17794585214176,,283.00000000000006_59779,1822.0,35.0,,1,,,2413.0,13,,1903.142857142857,1876.0,3.0,20,0.0,,6525710.0,,,NONE-DS,1.0,297059,77,,ts-trial-digit-span,
1,533.0582754258675,1.0,283.00000000000006_59779,727.0,65.0,,1,,,414.0,22,,1268.375,1277.0,3.0,20,1.0,,6525710.0,,,DS-SR,1.0,488769,137,,ts-trial-spatial-rotation,
2,180.84281849163932,,283.00000000000006_59779,1574.6666666666667,73.0,,1,,,1544.0,16,,1576.875,1568.0,3.0,20,0.0,,6525710.0,,,SR-SS,2.0,545288,153,,ts-trial-spatial-span,
0,623.1105840860031,1.0,283.00000000000006_59779,1466.6666666666667,51.0,,1,,,684.0,20,,1703.0,1672.5,4.0,20,2.0,,6525710.0,,,NONE-DS,2.0,398911,109,,ts-trial-digit-span,
1,282.8421758305706,1.0,283.00000000000006_59779,1556.3333333333333,88.0,,1,,,1577.0,30,,1661.375,1752.5,4.0,20,2.0,,6525710.0,,,DS-SR,2.0,636181,183,,ts-trial-spatial-rotation,
2,260.89461473936177,1.0,283.00000000000006_59779,1578.3333333333333,96.0,,1,,,1615.0,24,,1496.0,1546.0,4.0,20,0.0,,6525710.0,,,SR-SS,0.0,697455,200,,ts-trial-spatial-span,
0,203.43291862663818,1.0,283.00000000000006_59779,1585.6666666666667,81.0,,1,,,1522.0,26,,1672.5714285714287,1623.0,5.0,20,2.0,,6525710.0,,,NONE-DS,2.0,597649,169,,ts-trial-digit-span,
1,332.17130787859713,,283.00000000000006_59779,1633.0,103.0,,1,,,1989.0,38,,1463.4444444444443,1436.0,5.0,20,2.0,,6525710.0,,,DS-SR,0.0,744987,214,,ts-trial-spatial-rotation,
2,401.78987045469427,,283.00000000000006_59779,1432.6666666666667,124.0,,1,,,928.0,31,,1597.5,1636.5,5.0,20,2.0,,6525710.0,,,SR-SS,1.0,881946,256,,ts-trial-spatial-span,
0,134.35574668270303,,283.00000000000006_59779,1676.3333333333333,112.0,,1,,,1489.0,33,,1601.3333333333333,1544.0,6.0,20,2.0,,6525710.0,,,NONE-DS,1.0,807253,232,,ts-trial-digit-span,
1,214.6876801309288,1.0,283.00000000000006_59779,1172.3333333333333,118.0,,1,,,1409.0,47,,1245.0,1192.0,6.0,20,1.0,,6525710.0,,,DS-SR,1.0,841086,244,,ts-trial-spatial-rotation,
2,296.07365825265697,1.0,283.00000000000006_59779,1580.3333333333333,136.0,,1,,,1382.0,37,,1517.111111111111,1560.0,6.0,20,0.0,,6525710.0,,,SR-SS,0.0,965710,280,,ts-trial-spatial-span,
0,417.03372165809327,1.0,283.00000000000006_59779,1766.6666666666667,145.0,,1,,,1889.0,39,,2071.625,1966.0,7.0,20,0.0,,6525710.0,,,NONE-DS,0.0,1027476,298,,ts-trial-digit-span,
1,291.7229279070582,,283.00000000000006_59779,1675.6666666666667,130.0,,1,,,1727.0,53,,1700.6666666666667,1747.5,7.0,20,0.0,,6525710.0,,,DS-SR,2.0,925968,268,,ts-trial-spatial-rotation,
2,249.75481310010156,1.0,283.00000000000006_59779,1528.0,153.0,,1,,,1311.0,46,,1515.6666666666667,1597.5,7.0,20,1.0,,6525710.0,,,SR-SS,1.0,1069331,314,,ts-trial-spatial-span,
0,474.83614717780983,,283.00000000000006_59779,2034.3333333333333,159.0,,1,,,2868.0,47,,1993.1666666666667,1861.0,8.0,20,2.0,,6525710.0,,,NONE-DS,1.0,1108762,326,,ts-trial-digit-span,
1,476.1241959825188,1.0,283.00000000000006_59779,1767.0,172.0,,1,,,1931.0,59,,1774.25,1767.0,8.0,20,1.0,,6525710.0,,,DS-SR,1.0,1195675,352,,ts-trial-spatial-rotation,
2,265.20396463315336,,283.00000000000006_59779,1276.3333333333333,165.0,,1,,,1281.0,52,,1343.142857142857,1351.0,8.0,20,1.0,,6525710.0,,,SR-SS,2.0,1145693,338,,ts-trial-spatial-span,
0,598.9314575618349,1.0,293.7149999997928_80595,1325.9766666666644,1.0,,0,1.0,,998.9300000000003,0,,1839.6028571428553,1702.6299999999899,0.0,20,2.0,,6596150.0,,,SR-SS,2.0,58576,7,,ts-trial-digit-span,
0,341.31609879404454,1.0,293.7149999997928_80595,1221.7199999999914,31.0,,1,,,1366.4000000000233,7,,1477.859375,1368.5975000000326,1.0,20,0.0,,6596150.0,,,NONE-DS,0.0,286444,75,,ts-trial-digit-span,
1,250.34735007680413,1.0,293.7149999997928_80595,1711.0716666666656,16.0,,1,,,1544.3500000000058,0,,1798.3778571428556,1795.7799999999988,1.0,20,2.0,,6596150.0,,,DS-SR,2.0,172404,43,,ts-trial-spatial-rotation,
2,536.4199759612507,,293.7149999997928_80595,1600.4633333333331,8.0,,1,,,1339.2200000000012,0,,2033.0443750000031,2131.8925000000163,1.0,20,1.0,,6596150.0,,,SR-SS,2.0,101543,23,,ts-trial-spatial-span,
0,458.5921300632592,,293.7149999997928_80595,1807.2699999999993,48.0,,1,,,2564.1849999999977,15,,1643.2764285714281,1491.9100000000324,2.0,20,2.0,,6596150.0,,,NONE-DS,1.0,396009,109,,ts-trial-digit-span,
1,477.774744662678,1.0,293.7149999997928_80595,2133.2766666666917,55.0,,1,,,2142.5650000000023,7,,1988.9225000000151,2077.217500000028,2.0,20,2.0,,6596150.0,,,DS-SR,2.0,437689,123,,ts-trial-spatial-rotation,
2,573.6162433381937,,293.7149999997928_80595,2453.3366666666793,23.0,,1,,,2252.055000000022,8,,2202.890000000003,2284.920000000013,2.0,20,2.0,,6596150.0,,,SR-SS,0.0,222896,57,,ts-trial-spatial-span,
0,318.16353594644784,1.0,293.7149999997928_80595,1644.3016666666565,61.0,,1,,,2155.9599999999627,22,,1638.9685714285754,1614.2299999999814,3.0,20,1.0,,6596150.0,,,NONE-DS,1.0,476861,135,,ts-trial-digit-span,
1,504.5623730694016,,293.7149999997928_80595,2037.2933333333738,75.0,,1,,,2493.469999999972,13,,1546.684374999997,1481.3175000000047,3.0,20,2.0,,6596150.0,,,DS-SR,1.0,565253,163,,ts-trial-spatial-rotation,
2,528.9314627000766,,293.7149999997928_80595,1904.0766666666798,39.0,,1,,,1992.9000000000235,16,,1767.77555555556,1649.0499999999884,3.0,20,2.0,,6596150.0,,,SR-SS,0.0,333897,91,,ts-trial-spatial-span,
0,350.5519784485406,,293.7149999997928_80595,1354.4900000000296,89.0,,1,,,1877.3450000000885,29,,1489.0141666666605,1508.5424999999232,4.0,20,1.0,,6596150.0,,,NONE-DS,2.0,658148,191,,ts-trial-digit-span,
1,683.0520315201647,,293.7149999997928_80595,697.2833333333256,101.0,,1,,,532.5749999999534,21,,1343.5231249999924,1203.5750000000116,4.0,20,1.0,,6596150.0,,,DS-SR,2.0,735336,216,,ts-trial-spatial-rotation,
2,195.6033285942322,,293.7149999997928_80595,1419.4183333333349,68.0,,1,,,1605.4100000000324,25,,1255.122857142855,1249.3349999999627,4.0,20,2.0,,6596150.0,,,SR-SS,0.0,518127,149,,ts-trial-spatial-span,
0,350.0766698371651,,293.7149999997928_80595,1705.1333333333023,109.0,,1,,,1359.9249999999304,35,,1643.4974999999977,1536.5599999999977,5.0,20,1.0,,6596150.0,,,NONE-DS,2.0,788147,232,,ts-trial-digit-span,
1,277.43170657277346,,293.7149999997928_80595,778.9033333333597,117.0,,1,,,524.2550000000047,29,,890.634285714311,887.4750000000931,5.0,20,1.0,,6596150.0,,,DS-SR,0.0,830455,248,,ts-trial-spatial-rotation,
2,350.6964682231148,1.0,293.7149999997928_80595,1520.0349999999937,83.0,,1,,,1155.8449999999718,32,,1690.99583333331,1670.3175000000047,5.0,20,1.0,,6596150.0,,,SR-SS,1.0,620130,179,,ts-trial-spatial-span,
0,527.0389840253487,1.0,293.7149999997928_80595,1731.813333333276,131.0,,1,,,2102.554999999935,43,,1650.6719999999507,1903.4099999999162,6.0,20,2.0,,6596150.0,,,NONE-DS,2.0,925940,276,,ts-trial-digit-span,
1,414.42320579189703,,293.7149999997928_80595,1902.8750000000775,136.0,,1,,,2130.9400000000605,36,,1598.6221428571735,1396.2700000000186,6.0,20,0.0,,6596150.0,,,DS-SR,1.0,957591,288,,ts-trial-spatial-rotation,
2,773.810547270218,,293.7149999997928_80595,1434.376666666707,95.0,,1,,,1759.1700000000421,38,,2104.0266666666917,2159.9800000000396,6.0,20,1.0,,6596150.0,,,SR-SS,0.0,690376,204,,ts-trial-spatial-span,
0,401.3766348628385,1.0,293.7149999997928_80595,1364.2716666666868,143.0,,1,,,1337.3950000000184,48,,1551.8418749999983,1405.1875,7.0,20,2.0,,6596150.0,,,NONE-DS,2.0,1006176,302,,ts-trial-digit-span,
1,315.8875330451085,,293.7149999997928_80595,1134.3983333332774,151.0,,1,,,1311.8599999998696,43,,1277.0,1243.6450000000184,7.0,20,0.0,,6596150.0,,,DS-SR,1.0,1058406,320,,ts-trial-spatial-rotation,
2,548.0115684584529,1.0,293.7149999997928_80595,1124.2266666666449,124.0,,1,,,1588.5,44,,1511.1014285714232,1503.015000000014,7.0,20,1.0,,6596150.0,,,SR-SS,1.0,879819,262,,ts-trial-spatial-span,
0,294.97273959856886,1.0,293.7149999997928_80595,1544.089999999851,173.0,,1,,,1795.6099999998694,56,,1666.6887499999139,1696.0249999999066,8.0,20,2.0,,6596150.0,,,NONE-DS,2.0,1207665,364,,ts-trial-digit-span,
1,594.5487405734856,,293.7149999997928_80595,1782.471666666679,167.0,,1,,,1668.4150000000373,50,,1372.532500000011,1133.984999999986,8.0,20,2.0,,6596150.0,,,DS-SR,0.0,1165406,352,,ts-trial-spatial-rotation,
2,445.9507175624368,,293.7149999997928_80595,1325.436666666763,158.0,,1,,,912.8049999999347,51,,1418.4222222222274,1324.815000000177,8.0,20,1.0,,6596150.0,,,SR-SS,0.0,1105738,334,,ts-trial-spatial-span,
0,356.3913712813619,1.0,316_38703,1622.6666666666667,1.0,,0,1.0,,1860.0,0,,1685.142857142857,1860.0,0.0,21,0.0,,,,,SR-SS,0.0,55083,7,,ts-trial-digit-span,
0,503.49831536106313,1.0,316_38703,1795.6666666666667,34.0,,1,,,1416.0,7,,1951.375,1876.0,1.0,21,2.0,,,,,NONE-DS,2.0,280639,75,,ts-trial-digit-span,
1,356.6800620537496,,316_38703,1383.6666666666667,14.0,,1,,,1072.0,0,,1625.6666666666667,1724.5,1.0,21,1.0,,,,,DS-SR,2.0,136173,33,,ts-trial-spatial-rotation,
2,173.76008364024997,1.0,316_38703,1988.6666666666667,8.0,,1,,,1743.0,0,,1895.8333333333333,1829.5,1.0,21,0.0,,,,,SR-SS,0.0,96509,21,,ts-trial-spatial-span,
0,210.67697006147995,1.0,316_38703,1935.3333333333333,58.0,,1,,,2031.0,15,,1984.25,2077.0,2.0,21,2.0,,,,,NONE-DS,2.0,432321,123,,ts-trial-digit-span,
1,279.75292032179294,1.0,316_38703,1782.6666666666667,26.0,,1,,,1801.0,6,,1671.375,1544.0,2.0,21,2.0,,,,,DS-SR,2.0,221874,57,,ts-trial-spatial-rotation,
2,147.45812965041975,1.0,316_38703,1782.3333333333333,20.0,,1,,,1831.0,6,,1871.5,1874.0,2.0,21,0.0,,,,,SR-SS,0.0,177653,45,,ts-trial-spatial-span,
0,234.49855314814081,1.0,316_38703,1768.0,74.0,,1,,,1810.0,23,,1946.2857142857142,2002.0,3.0,21,1.0,,,,,NONE-DS,1.0,532234,155,,ts-trial-digit-span,
1,124.23912874417267,1.0,316_38703,1323.0,42.0,,1,,,1417.0,14,,1315.888888888889,1304.0,3.0,21,1.0,,,,,DS-SR,1.0,323586,91,,ts-trial-spatial-rotation,
2,310.3883895717628,1.0,316_38703,1856.0,51.0,,1,,,1623.0,12,,1936.5714285714287,2031.0,3.0,21,2.0,,,,,SR-SS,2.0,386685,109,,ts-trial-spatial-span,
0,637.0613785185851,,316_38703,2037.6666666666667,112.0,,1,,,2156.0,30,,2043.8,2156.0,4.0,21,2.0,,,,,NONE-DS,0.0,805325,238,,ts-trial-digit-span,
1,112.05802068571441,1.0,316_38703,1461.3333333333333,81.0,,1,,,1518.0,23,,1387.0,1343.0,4.0,21,2.0,,,,,DS-SR,2.0,581641,173,,ts-trial-spatial-rotation,
2,467.23800909478365,,316_38703,1537.3333333333333,66.0,,1,,,2187.0,19,,1686.25,1681.5,4.0,21,1.0,,,,,SR-SS,0.0,475434,139,,ts-trial-spatial-span,
0,303.4547742250894,1.0,316_38703,2042.3333333333333,132.0,,1,,,2234.0,35,,1916.0,1979.0,5.0,21,2.0,,,,,NONE-DS,2.0,942182,280,,ts-trial-digit-span,
1,492.6475848485841,,316_38703,2002.6666666666667,97.0,,1,,,2233.0,30,,1845.75,1694.5,5.0,21,0.0,,,,,DS-SR,2.0,692527,206,,ts-trial-spatial-rotation,
2,273.73162038756135,,316_38703,1729.6666666666667,88.0,,1,,,1396.0,27,,1559.0,1474.0,5.0,21,0.0,,,,,SR-SS,2.0,628194,187,,ts-trial-spatial-span,
0,441.3139786793273,1.0,316_38703,2133.6666666666665,143.0,,1,,,1586.0,41,,2159.5555555555557,2252.0,6.0,21,2.0,,,,,NONE-DS,2.0,1023246,306,,ts-trial-digit-span,
1,301.01479159985604,,316_38703,1597.0,125.0,,1,,,1398.0,38,,1671.7142857142858,1670.0,6.0,21,0.0,,,,,DS-SR,1.0,892107,266,,ts-trial-spatial-rotation,
2,559.8450465892114,,316_38703,1369.3333333333333,105.0,,1,,,1492.0,36,,1789.142857142857,1525.0,6.0,21,1.0,,,,,SR-SS,2.0,749096,222,,ts-trial-spatial-span,
0,360.82937697160173,1.0,316_38703,2185.0,158.0,,1,,,2012.0,50,,2003.875,2031.5,7.0,21,2.0,,,,,NONE-DS,2.0,1119404,336,,ts-trial-digit-span,
1,595.9545843994042,,316_38703,2123.6666666666665,152.0,,1,,,1648.0,45,,1952.3333333333333,1977.5,7.0,21,2.0,,,,,DS-SR,0.0,1076855,324,,ts-trial-spatial-rotation,
2,477.4890986040564,,316_38703,1886.3333333333333,117.0,,1,,,2644.0,43,,1619.875,1538.5,7.0,21,2.0,,,,,SR-SS,1.0,838859,250,,ts-trial-spatial-span,
0,137.14347718113805,1.0,316_38703,1699.5,172.0,,1,,,1807.0,58,,1650.3333333333333,1592.0,8.0,21,2.0,,,,,NONE-DS,2.0,1204418,364,,ts-trial-digit-span,
1,188.139753020638,,316_38703,1675.6666666666667,166.0,,1,,,1779.0,51,,1722.1666666666667,1724.5,8.0,21,0.0,,,,,DS-SR,1.0,1166157,352,,ts-trial-spatial-rotation,
2,280.2190214814119,,316_38703,1703.0,138.0,,1,,,1665.0,51,,1617.8,1585.0,8.0,21,1.0,,,,,SR-SS,0.0,984564,294,,ts-trial-spatial-span,
0,200.07623547038264,1.0,394_3084,1714.6666666666667,185.0,,0,1.0,,1488.0,0,,1722.25,1743.5,0.0,20,1.0,,1.0,,,SR-SS,1.0,36109,7,,ts-trial-spatial-rotation,
0,470.6096350176318,1.0,394_3084,2069.3333333333335,193.0,,1,,,1874.0,0,,1778.5,1614.5,1.0,20,1.0,,1.0,,,NONE-DS,1.0,88257,23,,ts-trial-digit-span,
1,427.125922382883,,394_3084,1417.0,201.0,,1,,,1168.0,8,,1603.375,1539.5,1.0,20,1.0,,1.0,,,DS-SR,2.0,137132,41,,ts-trial-spatial-rotation,
2,511.50901867951086,1.0,394_3084,1647.3333333333333,215.0,,1,,,1364.0,0,,1430.142857142857,1363.0,1.0,20,0.0,,1.0,,,SR-SS,0.0,229722,71,,ts-trial-spatial-span,
0,121.38108034890227,1.0,394_3084,1869.0,209.0,,1,,,1976.0,8,,1772.8333333333333,1757.5,2.0,20,2.0,,1.0,,,NONE-DS,2.0,192152,57,,ts-trial-digit-span,
1,311.49592980601574,1.0,394_3084,1704.6666666666667,222.0,,1,,,1392.0,16,,1558.5,1525.0,2.0,20,0.0,,1.0,,,DS-SR,0.0,277631,85,,ts-trial-spatial-rotation,
2,488.80037799065735,1.0,394_3084,1548.0,230.0,,1,,,1613.0,7,,1542.142857142857,1553.0,2.0,20,2.0,,1.0,,,SR-SS,2.0,331903,101,,ts-trial-spatial-span,
0,439.86946115540104,,394_3084,2115.6666666666665,252.0,,1,,,2305.0,14,,1999.0,2017.5,3.0,20,0.0,,1.0,,,NONE-DS,1.0,486523,145,,ts-trial-digit-span,
1,273.7738574078979,1.0,394_3084,1560.3333333333333,237.0,,1,,,1682.0,24,,1442.125,1453.5,3.0,20,2.0,,1.0,,,DS-SR,2.0,379302,115,,ts-trial-spatial-rotation,
2,382.05017122536844,,394_3084,1674.3333333333333,245.0,,1,,,1229.0,14,,1822.0,1867.0,3.0,20,1.0,,1.0,,,SR-SS,0.0,436836,131,,ts-trial-spatial-span,
0,623.3308645227402,1.0,394_3084,2209.3333333333335,267.0,,1,,,1432.0,22,,2170.1666666666665,2388.5,4.0,20,2.0,,1.0,,,NONE-DS,2.0,576114,175,,ts-trial-digit-span,
1,360.3751352344361,,394_3084,1211.0,260.0,,1,,,1195.0,32,,1511.2857142857142,1492.0,4.0,20,2.0,,1.0,,,DS-SR,0.0,530259,161,,ts-trial-spatial-rotation,
2,451.8868181619944,,394_3084,1473.6666666666667,281.0,,1,,,1790.0,21,,1747.375,1629.5,4.0,20,1.0,,1.0,,,SR-SS,0.0,678087,206,,ts-trial-spatial-span,
0,525.1317521754489,,394_3084,2337.6666666666665,289.0,,1,,,2563.0,28,,2034.75,1984.0,5.0,20,1.0,,1.0,,,NONE-DS,0.0,741186,224,,ts-trial-digit-span,
1,326.81526017876564,1.0,394_3084,1485.6666666666667,273.0,,1,,,1661.0,39,,1300.75,1247.5,5.0,20,1.0,,1.0,,,DS-SR,1.0,618295,189,,ts-trial-spatial-rotation,
2,452.25509026064776,,394_3084,839.6666666666666,297.0,,1,,,1254.0,29,,1091.3333333333333,1084.5,5.0,20,2.0,,1.0,,,SR-SS,1.0,786989,240,,ts-trial-spatial-span,
0,397.33127596143606,1.0,394_3084,2107.6666666666665,303.0,,1,,,1981.0,36,,2095.8571428571427,2062.0,6.0,20,2.0,,1.0,,,NONE-DS,2.0,831982,254,,ts-trial-digit-span,
1,442.822951829133,1.0,394_3084,1112.3333333333333,322.0,,1,,,635.0,47,,849.8333333333334,768.5,6.0,20,1.0,,1.0,,,DS-SR,1.0,961895,298,,ts-trial-spatial-rotation,
2,685.985604805232,,394_3084,1588.0,310.0,,1,,,1985.0,35,,1453.25,1588.0,6.0,20,1.0,,1.0,,,SR-SS,0.0,870266,268,,ts-trial-spatial-span,
0,445.06267616402715,,394_3084,1854.3333333333333,314.0,,1,,,2484.0,43,,1934.25,1962.0,7.0,20,2.0,,1.0,,,NONE-DS,1.0,915861,282,,ts-trial-digit-span,
1,744.8843497110437,1.0,394_3084,1452.3333333333333,341.0,,1,,,2848.0,53,,1301.2222222222222,982.0,7.0,20,0.0,,1.0,,,DS-SR,0.0,1096360,338,,ts-trial-spatial-rotation,
2,407.4377253028983,1.0,394_3084,1821.6666666666667,335.0,,1,,,1309.0,39,,1938.5,1978.0,7.0,20,0.0,,1.0,,,SR-SS,0.0,1053580,326,,ts-trial-spatial-span,
0,296.24635822555655,1.0,394_3084,1712.3333333333333,328.0,,1,,,1733.0,51,,1681.7142857142858,1722.0,8.0,20,2.0,,1.0,,,NONE-DS,2.0,1010708,312,,ts-trial-digit-span,
1,618.301167177722,,394_3084,1786.5,356.0,,1,,,2275.0,62,,1567.6666666666667,1298.0,8.0,20,1.0,,1.0,,,DS-SR,0.0,1201160,368,,ts-trial-spatial-rotation,
2,574.2994573100924,1.0,394_3084,1810.0,350.0,,1,,,1941.0,45,,1497.6666666666667,1572.0,8.0,20,1.0,,1.0,,,SR-SS,1.0,1156779,356,,ts-trial-spatial-span,
0,265.2463958379086,1.0,452.40499999999884_3732,1429.890000000002,1.0,,0,1.0,,1154.7900000000009,0,,1514.934000000001,1520.2650000000067,0.0,20,0.0,,37.0,,,SR-SS,0.0,48299,5,,ts-trial-digit-span,
0,548.2834092859458,,452.40499999999884_3732,2226.793333333335,14.0,,1,,,1535.0199999999895,5,,1873.9212499999994,1744.7550000000047,1.0,20,1.0,,37.0,,,NONE-DS,0.0,142479,35,,ts-trial-digit-span,
1,444.051747290133,,452.40499999999884_3732,2520.9666666666744,30.0,,1,,,2458.8950000000186,0,,2352.0975000000035,2444.220000000001,1.0,20,2.0,,37.0,,,DS-SR,1.0,253946,71,,ts-trial-spatial-rotation,
2,450.86489995767045,1.0,452.40499999999884_3732,2676.270000000004,6.0,,1,,,2784.9400000000023,0,,2199.546875000002,2045.074999999997,1.0,20,1.0,,37.0,,,SR-SS,1.0,84183,17,,ts-trial-spatial-span,
0,531.6695832084453,1.0,452.40499999999884_3732,2224.603333333352,50.0,,1,,,2526.585000000021,13,,1856.580555555553,1701.989999999991,2.0,20,2.0,,37.0,,,NONE-DS,2.0,403723,113,,ts-trial-digit-span,
1,143.17861792180292,1.0,452.40499999999884_3732,1551.8433333333426,44.0,,1,,,1563.5349999999744,8,,1612.8349999999919,1610.5224999999919,2.0,20,0.0,,37.0,,,DS-SR,0.0,354850,99,,ts-trial-spatial-rotation,
2,620.3704726004862,,452.40499999999884_3732,2078.7633333333265,22.0,,1,,,2507.3399999999965,8,,2116.1156249999985,2379.9974999999977,2.0,20,1.0,,37.0,,,SR-SS,0.0,185414,51,,ts-trial-spatial-span,
0,715.4780747491171,,452.40499999999884_3732,2159.1366666666777,72.0,,1,,,1383.510000000009,22,,1726.1133333333225,1568.320000000007,3.0,20,1.0,,37.0,,,NONE-DS,0.0,544967,157,,ts-trial-digit-span,
1,246.88317553045835,1.0,452.40499999999884_3732,1582.9533333333482,59.0,,1,,,1351.1650000000373,14,,1525.470000000011,1526.3800000000047,3.0,20,2.0,,37.0,,,DS-SR,2.0,455149,131,,ts-trial-spatial-rotation,
2,857.7012852488403,,452.40499999999884_3732,2386.578333333348,38.0,,1,,,2999.645000000018,16,,2029.5275000000063,1870.7474999999977,3.0,20,2.0,,37.0,,,SR-SS,1.0,310675,87,,ts-trial-spatial-span,
0,432.33136230662586,1.0,452.40499999999884_3732,1653.1483333333938,85.0,,1,,,1268.7300000000978,28,,1785.4012500000244,1767.4100000000326,4.0,20,2.0,,37.0,,,NONE-DS,2.0,628488,183,,ts-trial-digit-span,
1,604.8592741281695,1.0,452.40499999999884_3732,1762.3550000000203,78.0,,1,,,2163.0200000000186,20,,1806.7428571428838,1618.9200000000421,4.0,20,2.0,,37.0,,,DS-SR,2.0,577783,169,,ts-trial-spatial-rotation,
2,466.5446878994169,1.0,452.40499999999884_3732,1918.401666666672,65.0,,1,,,2031.765000000014,22,,1977.802142857158,1992.25,4.0,20,1.0,,37.0,,,SR-SS,1.0,495212,143,,ts-trial-spatial-span,
0,675.3006659880471,,452.40499999999884_3732,1594.6899999999441,105.0,,1,,,2691.394999999902,36,,1900.801249999975,1841.8450000000303,5.0,20,2.0,,37.0,,,NONE-DS,0.0,763711,228,,ts-trial-digit-span,
1,566.3331918954522,1.0,452.40499999999884_3732,1963.2316666666884,93.0,,1,,,2530.474999999977,27,,2206.216000000015,2150.464999999968,5.0,20,0.0,,37.0,,,DS-SR,0.0,672190,200,,ts-trial-spatial-rotation,
2,549.3676954300527,1.0,452.40499999999884_3732,1712.668333333296,98.0,,1,,,1281.7750000000233,29,,1909.0971428571336,1761.4549999999579,5.0,20,2.0,,37.0,,,SR-SS,2.0,712121,212,,ts-trial-spatial-span,
0,383.5432190075744,1.0,452.40499999999884_3732,2173.9633333332995,119.0,,1,,,1867.6399999998976,44,,2323.473333333328,2222.842500000028,6.0,20,2.0,,37.0,,,NONE-DS,2.0,859687,258,,ts-trial-digit-span,
1,510.1131292799954,1.0,452.40499999999884_3732,2435.1149999999907,133.0,,1,,,1966.8399999999676,32,,2041.3681249999936,1890.1199999999956,6.0,20,0.0,,37.0,,,DS-SR,0.0,957792,288,,ts-trial-spatial-rotation,
2,572.5539536410645,1.0,452.40499999999884_3732,1345.0483333333007,113.0,,1,,,1011.7049999999581,36,,1679.599999999996,1685.552500000049,6.0,20,1.0,,37.0,,,SR-SS,1.0,810160,244,,ts-trial-spatial-span,
0,552.286992284505,1.0,452.40499999999884_3732,2088.3999999999846,153.0,,1,,,1466.2250000000934,50,,2062.6866666666465,2064.3399999999674,7.0,20,0.0,,37.0,,,NONE-DS,0.0,1099592,330,,ts-trial-digit-span,
1,512.6847543731386,,452.40499999999884_3732,1757.7249999999378,147.0,,1,,,1413.7199999999718,40,,1944.9883333332837,1828.6324999999488,7.0,20,2.0,,37.0,,,DS-SR,0.0,1054572,316,,ts-trial-spatial-rotation,
2,671.4301569753832,1.0,452.40499999999884_3732,1529.1566666666574,125.0,,1,,,1225.1450000000184,42,,1773.2556250000198,1612.2099999999627,7.0,20,1.0,,37.0,,,SR-SS,1.0,892835,270,,ts-trial-spatial-span,
0,309.46061990660735,1.0,452.40499999999884_3732,1294.869999999879,164.0,,1,,,1291.1099999998696,56,,1527.8787499999744,1436.1524999999674,8.0,20,0.0,,37.0,,,NONE-DS,0.0,1176116,354,,ts-trial-digit-span,
1,487.8424880789126,,452.40499999999884_3732,2175.978333333352,159.0,,1,,,2431.1750000000466,46,,1975.275,2053.9399999999437,8.0,20,0.0,,37.0,,,DS-SR,1.0,1142886,344,,ts-trial-spatial-rotation,
2,515.6716162023089,1.0,452.40499999999884_3732,1691.6566666666185,141.0,,1,,,1852.8249999999532,50,,2134.778333333321,2158.8024999999907,8.0,20,2.0,,37.0,,,SR-SS,2.0,1014658,304,,ts-trial-spatial-span,
0,493.68559576583675,,4597.265000003972_15055,1489.2333333333324,1.0,,0,1.0,,1555.4850000000006,0,,1696.5666666666657,1506.2125000000015,0.0,18,1.0,,6570434.0,,,SR-SS,2.0,69956,5,,ts-trial-spatial-rotation,
0,588.1917414776408,1.0,4597.265000003972_15055,1885.8149999999976,7.0,,1,,,1340.9199999999985,0,,2096.5339999999997,2217.4049999999993,1.0,18,0.0,,6570434.0,,,NONE-DS,0.0,109538,17,,ts-trial-digit-span,
1,414.4562692121935,1.0,4597.265000003972_15055,1736.5399999999888,12.0,,1,,,1634.0999999999767,6,,2062.6014285714273,2101.3999999999937,1.0,18,1.0,,6570434.0,,,DS-SR,1.0,145463,29,,ts-trial-spatial-rotation,
2,743.5364271642859,,4597.265000003972_15055,2228.9449999999974,19.0,,1,,,2958.4249999999884,0,,2211.7742857142835,2428.0,1.0,18,1.0,,6570434.0,,,SR-SS,2.0,192038,43,,ts-trial-spatial-span,
0,578.4898848109384,1.0,4597.265000003972_15055,1493.5483333333298,26.0,,1,,,1616.1499999999942,5,,1872.6892857142832,1768.570000000007,2.0,18,2.0,,6570434.0,,,NONE-DS,2.0,244177,59,,ts-trial-digit-span,
1,464.2699050539797,1.0,4597.265000003972_15055,1941.4966666666442,41.0,,1,,,2245.399999999965,13,,2290.874374999985,2265.547499999986,2.0,18,2.0,,6570434.0,,,DS-SR,2.0,346733,91,,ts-trial-spatial-rotation,
2,654.9612920391945,,4597.265000003972_15055,1938.86500000001,33.0,,1,,,2497.984999999986,7,,1466.9462500000081,1236.467500000028,2.0,18,2.0,,6570434.0,,,SR-SS,1.0,291768,75,,ts-trial-spatial-span,
0,427.46691575197843,,4597.265000003972_15055,2603.7233333333666,49.0,,1,,,2697.8050000000508,12,,2502.435000000021,2697.8050000000508,3.0,18,2.0,,6570434.0,,,NONE-DS,1.0,408628,109,,ts-trial-digit-span,
1,708.3754925792665,,4597.265000003972_15055,2164.6683333333544,60.0,,1,,,3002.2399999999907,21,,1691.3557142856964,1535.4300000000512,3.0,18,2.0,,6570434.0,,,DS-SR,1.0,489710,135,,ts-trial-spatial-rotation,
2,182.05519227467732,,4597.265000003972_15055,1094.6383333333458,54.0,,1,,,1221.0,15,,1121.9758333333302,1145.1150000000198,3.0,18,1.0,,6570434.0,,,SR-SS,2.0,446572,123,,ts-trial-spatial-span,
0,240.29412279538698,,4597.265000003972_15055,2012.1183333333272,74.0,,1,,,2065.234999999986,17,,1940.9000000000087,2058.1525000000256,4.0,18,0.0,,6570434.0,,,NONE-DS,1.0,596833,167,,ts-trial-digit-span,
1,573.0443884588755,1.0,4597.265000003972_15055,2586.323333333363,82.0,,1,,,2574.070000000065,28,,2089.894166666665,2085.4899999999907,4.0,18,0.0,,6570434.0,,,DS-SR,0.0,644527,183,,ts-trial-spatial-rotation,
2,349.3728534630755,1.0,4597.265000003972_15055,1017.8199999999488,67.0,,1,,,1083.6149999999907,21,,1284.4292857142864,1207.6500000000233,4.0,18,1.0,,6570434.0,,,SR-SS,1.0,551289,153,,ts-trial-spatial-span,
0,398.82184293240846,1.0,4597.265000003972_15055,2394.351666666645,107.0,,1,,,2095.339999999968,25,,2486.2749999999846,2437.037500000035,5.0,18,1.0,,6570434.0,,,NONE-DS,1.0,856827,242,,ts-trial-digit-span,
1,256.5702003676238,1.0,4597.265000003972_15055,2530.8666666666977,95.0,,1,,,2420.5500000000466,34,,2470.631666666692,2465.7125000000233,5.0,18,1.0,,6570434.0,,,DS-SR,1.0,755525,214,,ts-trial-spatial-rotation,
2,562.4855018184644,1.0,4597.265000003972_15055,1531.448333333324,88.0,,1,,,1557.2550000000049,28,,1825.2664285714272,1719.8549999999814,5.0,18,1.0,,6570434.0,,,SR-SS,1.0,698805,198,,ts-trial-spatial-span,
0,383.18944825799963,1.0,4597.265000003972_15055,2070.859999999986,126.0,,1,,,2156.920000000042,31,,2272.773750000022,2134.622500000056,6.0,18,0.0,,6570434.0,,,NONE-DS,0.0,1005074,288,,ts-trial-digit-span,
1,607.465410315686,1.0,4597.265000003972_15055,1943.0883333332993,121.0,,1,,,2619.734999999986,40,,2003.5540000000037,2191.92499999993,6.0,18,1.0,,6570434.0,,,DS-SR,1.0,949161,272,,ts-trial-spatial-rotation,
2,322.8824221665587,,4597.265000003972_15055,1333.5616666666854,101.0,,1,,,1729.135000000009,35,,1315.0958333333645,1200.429999999993,6.0,18,0.0,,6570434.0,,,SR-SS,1.0,806627,228,,ts-trial-spatial-span,
0,200.89335211751109,,4597.265000003972_15055,1958.0874999999069,136.0,,1,,,1942.089999999851,35,,2073.7049999999194,1974.0849999999627,7.0,18,1.0,,6570434.0,,,NONE-DS,0.0,1100342,320,,ts-trial-digit-span,
1,520.107173065509,,4597.265000003972_15055,1711.3316666666262,130.0,,1,,,1689.6300000000049,45,,2177.164166666645,2131.0124999999534,7.0,18,1.0,,6570434.0,,,DS-SR,2.0,1038486,300,,ts-trial-spatial-rotation,
2,613.4372943559575,,4597.265000003972_15055,2281.978333333313,113.0,,1,,,2098.280000000028,41,,2155.673125000001,2257.3424999999697,7.0,18,0.0,,6570434.0,,,SR-SS,2.0,895185,256,,ts-trial-spatial-span,
0,427.8205394407983,1.0,4597.265000003972_15055,2364.900000000062,145.0,,1,,,2348.320000000065,38,,2074.69437500005,2060.0449999999255,8.0,18,0.0,,6570434.0,,,NONE-DS,0.0,1176017,342,,ts-trial-digit-span,
1,299.4957153560818,,4597.265000003972_15055,1749.0025000000605,153.0,,1,,,1405.2050000000745,51,,1777.4500000000698,1805.8975000000792,8.0,18,0.0,,6570434.0,,,DS-SR,2.0,1224303,360,,ts-trial-spatial-rotation,
2,424.94057107338466,,4597.265000003972_15055,1584.4216666666325,139.0,,1,,,1595.939999999944,49,,1724.5341666666015,1759.0549999999346,8.0,18,1.0,,6570434.0,,,SR-SS,0.0,1120432,326,,ts-trial-spatial-span,
0,419.272600869647,1.0,462.85000001080334_70250,1877.166666666669,1.0,,0,1.0,,1763.4349999999977,0,,2058.2600000000034,1999.0275000000001,0.0,21,0.0,,6481829.0,,,SR-SS,0.0,51033,5,,ts-trial-spatial-span,
0,361.0865415988373,1.0,462.85000001080334_70250,2056.5283333333305,2.0,,1,,,1659.7200000000012,0,,2009.997857142855,1994.7749999999944,1.0,21,0.0,,6481829.0,,,NONE-DS,0.0,212599,51,,ts-trial-digit-span,
1,468.35325308086846,,462.85000001080334_70250,2206.4466666666704,1.0,,1,,,2592.365000000005,0,,2208.355000000003,2249.2574999999997,1.0,21,0.0,,6481829.0,,,DS-SR,1.0,91348,17,,ts-trial-spatial-rotation,
2,319.6121095366981,,462.85000001080334_70250,2528.901666666672,1.0,,1,,,2807.609999999986,6,,2418.2899999999963,2358.794999999984,1.0,21,1.0,,6481829.0,,,SR-SS,2.0,163908,37,,ts-trial-spatial-span,
0,552.1571924975675,,462.85000001080334_70250,1279.1933333333388,4.0,,1,,,1391.135000000009,7,,1753.9737500000047,1498.827499999985,2.0,21,1.0,,6481829.0,,,NONE-DS,2.0,352232,95,,ts-trial-digit-span,
1,470.28742134416854,,462.85000001080334_70250,1963.8233333333435,4.0,,1,,,2785.6149999999907,8,,1855.705624999995,1677.179999999993,2.0,21,0.0,,6481829.0,,,DS-SR,1.0,259308,67,,ts-trial-spatial-rotation,
2,701.9314118879365,1.0,462.85000001080334_70250,2256.1450000000186,4.0,,1,,,2509.7750000000233,11,,1837.1420000000157,1661.3450000000305,2.0,21,1.0,,6481829.0,,,SR-SS,1.0,313121,83,,ts-trial-spatial-span,
0,413.0864774763343,1.0,462.85000001080334_70250,2006.5699999999877,7.0,,1,,,1745.5250000000233,15,,2052.137142857146,2015.5800000000165,3.0,21,1.0,,6481829.0,,,NONE-DS,1.0,498202,141,,ts-trial-digit-span,
1,528.8502552652892,1.0,462.85000001080334_70250,2344.494999999976,7.0,,1,,,2647.2999999999884,16,,1960.78416666665,1852.837499999965,3.0,21,2.0,,6481829.0,,,DS-SR,2.0,455740,129,,ts-trial-spatial-rotation,
2,500.4686221920705,1.0,462.85000001080334_70250,2106.3299999999967,7.0,,1,,,2575.25,16,,1984.3528571428615,1836.7999999999884,3.0,21,1.0,,6481829.0,,,SR-SS,1.0,394846,111,,ts-trial-spatial-span,
0,355.54631720072763,1.0,462.85000001080334_70250,2455.405000000028,9.0,,1,,,2544.670000000042,22,,2149.185000000017,2304.219999999972,4.0,21,1.0,,6481829.0,,,NONE-DS,1.0,656488,189,,ts-trial-digit-span,
1,483.9407259144662,,462.85000001080334_70250,1780.608333333318,8.0,,1,,,1751.5999999999767,22,,1932.9738888888776,1762.6699999999255,4.0,21,2.0,,6481829.0,,,DS-SR,0.0,545891,157,,ts-trial-spatial-rotation,
2,372.80714147787455,1.0,462.85000001080334_70250,1608.4100000000715,8.0,,1,,,1569.5450000000421,23,,1664.3307142857561,1655.7350000001024,4.0,21,0.0,,6481829.0,,,SR-SS,0.0,610577,175,,ts-trial-spatial-span,
0,379.16368355052856,1.0,462.85000001080334_70250,1608.7633333333458,11.0,,1,,,1713.2900000000373,31,,1773.3561111111064,1696.5749999999537,5.0,21,1.0,,6481829.0,,,NONE-DS,1.0,831909,242,,ts-trial-digit-span,
1,535.5601926950313,1.0,462.85000001080334_70250,1900.5700000000263,11.0,,1,,,1528.1500000000233,31,,1777.726874999993,1701.8850000000093,5.0,21,0.0,,6481829.0,,,DS-SR,0.0,776777,226,,ts-trial-spatial-rotation,
2,493.7565933768933,1.0,462.85000001080334_70250,1678.1933333333193,11.0,,1,,,2193.015000000014,30,,1886.1406250000146,1754.9899999999907,5.0,21,0.0,,6481829.0,,,SR-SS,0.0,712769,208,,ts-trial-spatial-span,
0,304.8192558877882,1.0,462.85000001080334_70250,1891.4433333332802,13.0,,1,,,2268.3149999999437,40,,1752.6649999999788,1703.0074999999488,6.0,21,2.0,,6481829.0,,,NONE-DS,2.0,926624,274,,ts-trial-digit-span,
1,157.39065784697272,,462.85000001080334_70250,1710.6449999999797,13.0,,1,,,1794.2850000000324,39,,1713.82249999999,1791.3099999999977,6.0,21,2.0,,6481829.0,,,DS-SR,1.0,881549,260,,ts-trial-spatial-rotation,
2,406.7053513908989,1.0,462.85000001080334_70250,1597.2149999999674,15.0,,1,,,1833.3349999999627,38,,1787.5183333333116,1557.0399999999206,6.0,21,1.0,,6481829.0,,,SR-SS,1.0,1006590,300,,ts-trial-spatial-span,
0,528.853131402468,1.0,462.85000001080334_70250,2130.7116666667475,17.0,,1,,,1335.0300000000282,46,,1954.9008333333768,1836.4425000000047,7.0,21,2.0,,6481829.0,,,NONE-DS,2.0,1068893,318,,ts-trial-digit-span,
1,144.19717949738947,1.0,462.85000001080334_70250,2097.161666666701,15.0,,1,,,2302.785000000033,45,,2081.6900000000437,2092.965000000084,7.0,21,1.0,,6481829.0,,,DS-SR,1.0,959683,286,,ts-trial-spatial-rotation,
2,317.12098074189225,1.0,462.85000001080334_70250,1233.8750000000775,17.0,,1,,,1276.9650000000838,47,,1387.5266666667303,1353.6400000001304,7.0,21,0.0,,6481829.0,,,SR-SS,0.0,1120423,336,,ts-trial-spatial-span,
0,417.4225157776623,,462.85000001080334_70250,2299.651666666769,19.0,,1,,,2622.965000000084,52,,2050.598125000077,1950.4600000000792,8.0,21,2.0,,6481829.0,,,NONE-DS,0.0,1210090,362,,ts-trial-digit-span,
1,348.67905680378834,,462.85000001080334_70250,1960.9450000000652,17.0,,1,,,2064.350000000093,52,,1626.8007142857448,1518.2299999999814,8.0,21,0.0,,6481829.0,,,DS-SR,2.0,1163845,348,,ts-trial-spatial-rotation,
2,257.1135353464117,,462.85000001080334_70250,2002.1324999999488,27.0,,1,,,1995.214999999851,53,,1853.7416666666202,1995.214999999851,8.0,21,1.0,,6481829.0,,,SR-SS,2.0,1253559,378,,ts-trial-spatial-span,
0,258.0256539478935,,503_63410,2420.6666666666665,1.0,,0,1.0,,2223.0,0,,2285.714285714286,2242.0,0.0,19,2.0,,6574224.0,,,SR-SS,1.0,36294,7,,ts-trial-digit-span,
0,465.9387860877783,1.0,503_63410,2033.3333333333333,22.0,,1,,,1878.0,7,,2099.4285714285716,1878.0,1.0,19,1.0,,6574224.0,,,NONE-DS,1.0,180498,53,,ts-trial-digit-span,
1,349.1728798174337,1.0,503_63410,2615.6666666666665,8.0,,1,,,2549.0,0,,2421.8,2537.0,1.0,19,2.0,,6574224.0,,,DS-SR,2.0,81193,23,,ts-trial-spatial-rotation,
2,308.1115869291514,1.0,503_63410,1992.0,13.0,,1,,,1844.0,0,,2225.6666666666665,2335.0,1.0,19,1.0,,6574224.0,,,SR-SS,1.0,120823,35,,ts-trial-spatial-span,
0,562.3029136210008,,503_63410,1514.6666666666667,44.0,,1,,,1420.0,14,,1988.8333333333333,1944.0,2.0,19,1.0,,6574224.0,,,NONE-DS,2.0,337841,103,,ts-trial-digit-span,
1,575.1760393049037,1.0,503_63410,2388.0,37.0,,1,,,2651.0,5,,2101.8571428571427,2255.0,2.0,19,2.0,,6574224.0,,,DS-SR,2.0,284856,87,,ts-trial-spatial-rotation,
2,494.13871678767634,,503_63410,1310.6666666666667,29.0,,1,,,630.0,9,,1569.75,1724.5,2.0,19,1.0,,6574224.0,,,SR-SS,0.0,230880,71,,ts-trial-spatial-span,
0,582.6812736536731,,503_63410,1791.6666666666667,64.0,,1,,,1219.0,20,,1563.3333333333333,1386.0,3.0,19,1.0,,6574224.0,,,NONE-DS,2.0,476314,145,,ts-trial-digit-span,
1,523.281950768417,,503_63410,1468.6666666666667,58.0,,1,,,1600.0,12,,1504.0,1403.0,3.0,19,0.0,,6574224.0,,,DS-SR,2.0,437229,133,,ts-trial-spatial-rotation,
2,223.39359084040757,,503_63410,955.6666666666666,50.0,,1,,,931.0,17,,849.125,845.0,3.0,19,0.0,,6574224.0,,,SR-SS,2.0,373116,115,,ts-trial-spatial-span,
0,655.148520057348,,503_63410,2048.0,83.0,,1,,,1672.0,26,,1574.75,1503.5,4.0,19,1.0,,6574224.0,,,NONE-DS,0.0,634935,193,,ts-trial-digit-span,
1,357.9544198171978,,503_63410,907.3333333333334,70.0,,1,,,540.0,18,,1032.8333333333333,1043.0,4.0,19,1.0,,6574224.0,,,DS-SR,2.0,524778,161,,ts-trial-spatial-rotation,
2,832.4506849400407,,503_63410,1635.0,76.0,,1,,,773.0,25,,1504.857142857143,1040.0,4.0,19,1.0,,6574224.0,,,SR-SS,2.0,568232,173,,ts-trial-spatial-span,
0,806.9542737974687,1.0,503_63410,958.6666666666666,90.0,,1,,,510.0,30,,1567.0,1639.0,5.0,19,1.0,,6574224.0,,,NONE-DS,1.0,718078,220,,ts-trial-digit-span,
1,534.3934256082623,,503_63410,691.0,87.0,,1,,,651.0,24,,998.6666666666666,731.0,5.0,19,0.0,,6574224.0,,,DS-SR,1.0,682469,210,,ts-trial-spatial-rotation,
2,233.93802598124145,,503_63410,906.5,96.0,,1,,,750.0,32,,973.5,941.5,5.0,19,1.0,,6574224.0,,,SR-SS,0.0,750961,232,,ts-trial-spatial-span,
0,590.0994468247341,,503_63410,1517.6666666666667,115.0,,1,,,2644.0,36,,1424.75,1321.5,6.0,19,1.0,,6574224.0,,,NONE-DS,0.0,930746,284,,ts-trial-digit-span,
1,713.9555808511979,1.0,503_63410,1648.6666666666667,100.0,,1,,,2865.0,27,,1257.2857142857142,975.0,6.0,19,2.0,,6574224.0,,,DS-SR,2.0,812054,250,,ts-trial-spatial-rotation,
2,169.20233027777297,1.0,503_63410,929.3333333333334,107.0,,1,,,901.0,36,,988.5,906.5,6.0,19,1.0,,6574224.0,,,SR-SS,1.0,865784,266,,ts-trial-spatial-span,
0,487.4546132718409,,503_63410,1407.0,130.0,,1,,,1842.0,34,,1534.0,1788.0,7.0,19,2.0,,6574224.0,,,NONE-SR,0.0,1106002,328,,ts-trial-spatial-rotation,
1,270.7559786966855,1.0,503_63410,1014.0,123.0,,1,,,898.0,44,,1139.4,1311.0,7.0,19,1.0,,6574224.0,,,SR-SS,1.0,979498,300,,ts-trial-spatial-span,
0,369.80956679788153,1.0,550.7099999999809_41239,2297.736666666664,1.0,,0,1.0,,2133.125,0,,2033.835714285713,2026.0199999999893,0.0,18,0.0,,6577416.0,,,SR-SS,0.0,91351,5,,ts-trial-spatial-rotation,
0,372.80447235335487,1.0,550.7099999999809_41239,1961.5783333333384,8.0,,1,,,1490.0250000000233,0,,1978.5483333333348,2057.0899999999965,1.0,18,0.0,,6577416.0,,,NONE-DS,0.0,148380,21,,ts-trial-digit-span,
1,389.90656868425503,1.0,550.7099999999809_41239,2262.144999999999,20.0,,1,,,2580.915000000008,7,,1960.7243750000016,2060.582500000004,1.0,18,1.0,,6577416.0,,,DS-SR,1.0,229075,45,,ts-trial-spatial-rotation,
2,532.0200894483794,1.0,550.7099999999809_41239,2218.261666666658,14.0,,1,,,2046.8699999999953,0,,2259.3733333333316,2035.8600000000006,1.0,18,1.0,,6577416.0,,,SR-SS,1.0,185369,33,,ts-trial-spatial-span,
0,557.3657310891067,,550.7099999999809_41239,1852.948333333324,36.0,,1,,,1442.7999999999884,6,,2179.128999999992,2083.4949999999953,2.0,18,0.0,,6577416.0,,,NONE-DS,1.0,343571,77,,ts-trial-digit-span,
1,336.9743700558756,1.0,550.7099999999809_41239,1914.0500000000077,41.0,,1,,,2117.3300000000163,15,,2025.6893750000017,2034.6050000000105,2.0,18,2.0,,6577416.0,,,DS-SR,2.0,376740,89,,ts-trial-spatial-rotation,
2,417.9123622324361,,550.7099999999809_41239,1928.4783333333326,28.0,,1,,,2342.25,6,,2000.0931250000067,2073.605000000011,2.0,18,1.0,,6577416.0,,,SR-SS,0.0,287264,61,,ts-trial-spatial-span,
0,406.1923017839715,,550.7099999999809_41239,1973.5016666666681,56.0,,1,,,1378.6000000000352,11,,1903.0524999999907,1924.062499999971,3.0,18,0.0,,6577416.0,,,NONE-DS,2.0,482668,121,,ts-trial-digit-span,
1,261.2015289707788,1.0,550.7099999999809_41239,1978.9066666666577,80.0,,1,,,1755.9349999999395,23,,1935.6783333333442,1870.2575000000652,3.0,18,1.0,,6577416.0,,,DS-SR,1.0,628985,169,,ts-trial-spatial-rotation,
2,353.59883684124844,1.0,550.7099999999809_41239,1558.7416666666395,49.0,,1,,,2108.2999999999884,14,,1782.1521428571266,1879.1599999999744,3.0,18,1.0,,6577416.0,,,SR-SS,1.0,437177,107,,ts-trial-spatial-span,
0,391.74805438480513,1.0,550.7099999999809_41239,2219.6333333333023,72.0,,1,,,2319.04999999993,19,,2224.077499999985,2228.007500000007,4.0,18,2.0,,6577416.0,,,NONE-DS,2.0,582110,153,,ts-trial-digit-span,
1,234.22743452735708,,550.7099999999809_41239,1868.2983333333007,92.0,,1,,,1761.6999999999537,29,,1798.3031249999913,1749.399999999965,4.0,18,0.0,,6577416.0,,,DS-SR,1.0,714415,196,,ts-trial-spatial-rotation,
2,514.8910243092994,,550.7099999999809_41239,2045.1499999999457,64.0,,1,,,2360.919999999925,21,,1938.6374999999825,1943.1149999999907,4.0,18,0.0,,6577416.0,,,SR-SS,1.0,526308,137,,ts-trial-spatial-span,
0,478.7015495797136,,550.7099999999809_41239,2092.443333333358,86.0,,1,,,1540.6049999999814,27,,2141.1150000000293,2107.4325000000536,5.0,18,0.0,,6577416.0,,,NONE-DS,1.0,671367,181,,ts-trial-digit-span,
1,503.00102013528766,1.0,550.7099999999809_41239,2103.313333333392,116.0,,1,,,2762.155000000028,37,,1879.5221428571801,1784.109999999986,5.0,18,1.0,,6577416.0,,,DS-SR,1.0,868153,244,,ts-trial-spatial-rotation,
2,262.83606943196236,1.0,550.7099999999809_41239,1617.9299999999737,107.0,,1,,,1484.9050000000282,29,,1769.7522222222242,1834.1300000000049,5.0,18,0.0,,6577416.0,,,SR-SS,0.0,807217,226,,ts-trial-spatial-span,
0,222.1645521047343,,550.7099999999809_41239,1834.7600000000093,100.0,,1,,,1911.9050000000282,33,,1947.0242857142584,1982.4449999999488,6.0,18,1.0,,6577416.0,,,NONE-DS,2.0,766472,212,,ts-trial-digit-span,
1,391.853431718555,,550.7099999999809_41239,1904.1316666667506,145.0,,1,,,2325.765000000131,44,,1557.7831249999872,1495.5449999999255,6.0,18,1.0,,6577416.0,,,DS-SR,0.0,1063489,302,,ts-trial-spatial-rotation,
2,291.2746619654946,1.0,550.7099999999809_41239,1723.1433333332727,123.0,,1,,,2074.0849999999627,38,,1655.2006249999977,1602.4375,6.0,18,2.0,,6577416.0,,,SR-SS,2.0,919393,258,,ts-trial-spatial-span,
0,416.9006546728548,1.0,550.7099999999809_41239,1694.7716666666481,131.0,,1,,,1658.4300000000512,40,,1895.138333333307,1786.344999999972,7.0,18,2.0,,6577416.0,,,NONE-DS,2.0,972018,274,,ts-trial-digit-span,
1,233.8236648244153,1.0,550.7099999999809_41239,1868.293333333296,161.0,,1,,,1982.7349999998694,52,,1658.9477777777809,1685.2199999999718,7.0,18,1.0,,6577416.0,,,DS-SR,1.0,1169791,334,,ts-trial-spatial-rotation,
2,329.5309148921158,,550.7099999999809_41239,1677.4083333332865,137.0,,1,,,1331.439999999944,46,,1627.9637499999226,1476.1224999999395,7.0,18,0.0,,6577416.0,,,SR-SS,1.0,1005433,286,,ts-trial-spatial-span,
0,387.7152564797279,,550.7099999999809_41239,1848.9933333334047,170.0,,1,,,1430.810000000056,46,,1874.4375000000582,1782.2350000001024,8.0,18,0.0,,6577416.0,,,NONE-DS,1.0,1229845,352,,ts-trial-digit-span,
1,207.67205960759208,1.0,550.7099999999809_41239,1576.8574999999255,178.0,,1,,,1763.9949999998792,61,,1615.5774999999558,1627.4874999999302,8.0,18,2.0,,6577416.0,,,DS-SR,2.0,1277297,368,,ts-trial-spatial-rotation,
2,351.2795040964008,,550.7099999999809_41239,1707.1749999998913,153.0,,1,,,1342.8599999998696,54,,1727.243749999965,1686.25,8.0,18,0.0,,6577416.0,,,SR-SS,2.0,1116263,318,,ts-trial-spatial-span,
0,446.6180723200961,1.0,569.4950000033714_22620,2026.0050000000047,25.0,,0,1.0,,2049.5750000000044,0,,1805.098750000001,2017.505000000001,0.0,19,2.0,,1.0,,,SR-SS,2.0,53951,7,,ts-trial-digit-span,
0,527.8375313050046,1.0,569.4950000033714_22620,2238.123333333322,51.0,,1,,,2400.834999999992,4,,2236.10583333333,2470.979999999996,1.0,19,0.0,,1.0,,,NONE-DS,0.0,262523,71,,ts-trial-digit-span,
1,511.01711148779907,,569.4950000033714_22620,1943.9566666666651,37.0,,1,,,2500.1849999999977,0,,1973.1199999999953,1947.6199999999953,1.0,19,0.0,,1.0,,,DS-SR,1.0,155262,39,,ts-trial-spatial-rotation,
2,601.3557209632786,1.0,569.4950000033714_22620,1859.3966666666627,29.0,,1,,,2538.239999999991,0,,1982.6731249999975,1966.564999999995,1.0,19,0.0,,1.0,,,SR-SS,0.0,93681,21,,ts-trial-spatial-span,
0,523.1711341015772,1.0,569.4950000033714_22620,2027.5716666666751,67.0,,1,,,1598.1500000000233,10,,2239.4749999999985,2310.6699999999837,2.0,19,0.0,,1.0,,,NONE-DS,0.0,385823,107,,ts-trial-digit-span,
1,675.9028861086467,1.0,569.4950000033714_22620,2327.7349999999856,63.0,,1,,,1685.3999999999648,7,,1965.190000000002,1693.5074999999779,2.0,19,1.0,,1.0,,,DS-SR,1.0,342871,95,,ts-trial-spatial-rotation,
2,567.6337967449946,1.0,569.4950000033714_22620,1819.2650000000042,44.0,,1,,,1478.5599999999977,8,,1890.7921428571487,1596.5750000000116,2.0,19,1.0,,1.0,,,SR-SS,1.0,209249,55,,ts-trial-spatial-span,
0,437.80064132844194,1.0,569.4950000033714_22620,2520.5950000000107,107.0,,1,,,2725.760000000009,18,,2260.413571428591,2306.4449999999492,3.0,19,1.0,,1.0,,,NONE-DS,1.0,659220,189,,ts-trial-digit-span,
1,347.05587901935513,1.0,569.4950000033714_22620,2075.4316666666614,75.0,,1,,,1715.695000000007,11,,1793.9757142857165,1730.6000000000352,3.0,19,0.0,,1.0,,,DS-SR,0.0,430142,123,,ts-trial-spatial-rotation,
2,374.32170079246265,,569.4950000033714_22620,2132.1649999999986,57.0,,1,,,1931.885000000009,15,,2313.8408333333305,2260.1199999999953,3.0,19,0.0,,1.0,,,SR-SS,1.0,299203,83,,ts-trial-spatial-span,
0,954.6887623755533,1.0,569.4950000033714_22620,2747.269999999902,121.0,,1,,,2791.2799999999115,25,,2227.228749999951,2659.1849999999395,4.0,19,2.0,,1.0,,,NONE-DS,2.0,745741,218,,ts-trial-digit-span,
1,503.2943237151731,1.0,569.4950000033714_22620,2060.3699999999953,90.0,,1,,,2294.8149999999437,18,,2015.8287500000006,2143.380000000004,4.0,19,0.0,,1.0,,,DS-SR,0.0,544158,155,,ts-trial-spatial-rotation,
2,424.4170344194112,,569.4950000033714_22620,1904.9983333333319,82.0,,1,,,1918.5749999999532,21,,2169.8062500000087,1930.9075000000012,4.0,19,2.0,,1.0,,,SR-SS,0.0,481084,137,,ts-trial-spatial-span,
0,507.8567173672171,,569.4950000033714_22620,2519.152499999967,132.0,,1,,,2549.199999999953,29,,2308.8474999999744,2519.152499999967,5.0,19,1.0,,1.0,,,NONE-DS,0.0,827453,244,,ts-trial-digit-span,
1,539.9798455575207,,569.4950000033714_22620,2448.439999999983,114.0,,1,,,2384.044999999925,26,,2189.179999999985,2182.0699999999492,5.0,19,0.0,,1.0,,,DS-SR,2.0,699701,204,,ts-trial-spatial-rotation,
2,389.4062070007414,,569.4950000033714_22620,2149.4033333333596,98.0,,1,,,2196.5800000000745,29,,2046.1272222222242,1978.2149999999676,5.0,19,0.0,,1.0,,,SR-SS,2.0,601241,171,,ts-trial-spatial-span,
0,449.27869820137226,1.0,569.4950000033714_22620,2357.925000000008,148.0,,1,,,2657.5650000000605,33,,2356.327500000014,2593.4075000000303,6.0,19,0.0,,1.0,,,NONE-DS,0.0,943263,280,,ts-trial-digit-span,
1,270.3118900565755,1.0,569.4950000033714_22620,1695.590000000045,125.0,,1,,,1494.4749999999767,33,,1762.8335714285827,1748.8349999999627,6.0,19,0.0,,1.0,,,DS-SR,0.0,781337,230,,ts-trial-spatial-rotation,
2,358.5364076445353,,569.4950000033714_22620,2508.7783333333596,142.0,,1,,,2550.760000000009,38,,2579.6216666666637,2642.867500000051,6.0,19,0.0,,1.0,,,SR-SS,1.0,900777,268,,ts-trial-spatial-span,
0,423.7574326270423,,569.4950000033714_22620,589.0583333333489,172.0,,1,,,717.1999999999533,39,,566.5216666666869,558.1499999999069,7.0,19,2.0,,1.0,,,NONE-DS,1.0,1109582,330,,ts-trial-digit-span,
1,431.2228289846053,1.0,569.4950000033714_22620,1403.531666666696,136.0,,1,,,1465.0250000000233,40,,1789.67750000001,1785.117499999993,7.0,19,1.0,,1.0,,,DS-SR,1.0,860037,256,,ts-trial-spatial-rotation,
2,572.9715999403245,,569.4950000033714_22620,2144.618333333366,154.0,,1,,,1475.1200000001118,44,,2027.1277777778062,2114.8800000000047,7.0,19,2.0,,1.0,,,SR-SS,0.0,986067,294,,ts-trial-spatial-span,
0,409.91594171849033,,569.4950000033714_22620,1246.5883333332215,163.0,,1,,,1581.9099999999164,46,,903.3283333333158,719.1550000000279,8.0,19,0.0,,1.0,,,NONE-SR,2.0,1047648,312,,ts-trial-spatial-rotation,
1,475.3601189308592,,569.4950000033714_22620,247.57499999995343,178.0,,1,,,426.9749999998603,53,,525.284999999955,333.3299999999581,8.0,19,2.0,,1.0,,,SR-SS,1.0,1143300,342,,ts-trial-spatial-span,
0,312.88091768275314,1.0,611.2100000027567_97917,2104.7999999999993,1.0,,0,1.0,,2301.57,0,,1980.3949999999968,2020.9074999999975,0.0,19,2.0,,,,,SR-SS,2.0,40324,5,,ts-trial-spatial-rotation,
0,417.47498225642795,1.0,611.2100000027567_97917,2387.2783333333405,14.0,,1,,,2435.930000000022,0,,2257.4749999999963,2275.1725000000006,1.0,19,2.0,,,,,NONE-DS,2.0,140432,35,,ts-trial-digit-span,
1,271.9274784089358,,611.2100000027567_97917,1514.893333333331,20.0,,1,,,1388.2449999999951,4,,1686.301875000001,1651.3250000000116,1.0,19,2.0,,,,,DS-SR,0.0,182824,49,,ts-trial-spatial-rotation,
2,352.3449392197184,,611.2100000027567_97917,2047.445000000007,5.0,,1,,,2156.4600000000064,0,,2179.2249999999995,2156.4600000000064,1.0,19,1.0,,,,,SR-SS,2.0,80868,17,,ts-trial-spatial-span,
0,539.0654760536185,1.0,611.2100000027567_97917,1767.8399999999965,41.0,,1,,,1225.6749999999886,6,,1622.8962500000052,1509.8699999999953,2.0,19,2.0,,,,,NONE-DS,2.0,343335,95,,ts-trial-digit-span,
1,534.0596382171501,1.0,611.2100000027567_97917,1470.4499999999923,34.0,,1,,,1514.9749999999767,12,,1871.3835714285794,1612.385000000009,2.0,19,1.0,,,,,DS-SR,1.0,288630,79,,ts-trial-spatial-rotation,
2,368.76886508693167,,611.2100000027567_97917,2258.4049999999893,28.0,,1,,,2818.619999999996,9,,2240.657500000001,2211.1624999999913,2.0,19,0.0,,,,,SR-SS,2.0,248532,67,,ts-trial-spatial-span,
0,422.3590029041341,,611.2100000027567_97917,1761.7949999999837,53.0,,1,,,2010.239999999991,10,,2052.0608333333316,2063.172499999986,3.0,19,2.0,,,,,NONE-DS,0.0,424672,121,,ts-trial-digit-span,
1,339.20773143334253,,611.2100000027567_97917,1779.983333333279,68.0,,1,,,2193.8199999999492,19,,1579.0658333332976,1441.3649999999907,3.0,19,1.0,,,,,DS-SR,2.0,531222,153,,ts-trial-spatial-rotation,
2,399.9866658647979,,611.2100000027567_97917,1292.9750000000156,45.0,,1,,,1539.484999999986,15,,1547.4912500000064,1666.7099999999919,3.0,19,2.0,,,,,SR-SS,1.0,371388,105,,ts-trial-spatial-span,
0,549.4494478908025,1.0,611.2100000027567_97917,1442.8616666666155,74.0,,1,,,1060.6949999999488,16,,1624.1174999999737,1602.1374999999534,4.0,19,0.0,,,,,NONE-DS,0.0,569681,165,,ts-trial-digit-span,
1,242.68072106511607,,611.2100000027567_97917,1956.4666666667133,88.0,,1,,,1730.6300000000049,25,,1917.0983333333472,1861.9199999999837,4.0,19,2.0,,,,,DS-SR,0.0,669095,196,,ts-trial-spatial-rotation,
2,324.6009152737043,,611.2100000027567_97917,1373.795000000003,59.0,,1,,,1308.320000000007,23,,1636.3805555555477,1537.8800000000049,4.0,19,2.0,,,,,SR-SS,1.0,466692,135,,ts-trial-spatial-span,
0,561.4255603478707,,611.2100000027567_97917,1361.3400000000063,94.0,,1,,,1165.9300000000512,22,,1594.3807142857363,1510.7700000000186,5.0,19,1.0,,,,,NONE-DS,0.0,709714,208,,ts-trial-digit-span,
