,participant_id,block,type,occurence,response_time,mean_rt,SD_rt,MAD_rt,median_rt,rt_trial_1,rt_trial_2,rt_trial_3,response_time,accuracy,switch_type
0,danielle_pilot,1.0,TrialDigitSpan,1.0,1.348395586013794,1.5299036162240165,0.49932692538295637,0.3655954283110929,1.348395586013794,1.348395586013794,1.811152696609504,1.1569058895111155,1.348395586013794,,NONE-DS
1,danielle_pilot,1.0,TrialDigitSpan,1.0,1.811152696609504,1.5299036162240165,0.49932692538295637,0.3655954283110929,1.348395586013794,1.348395586013794,1.811152696609504,1.1569058895111155,1.811152696609504,,none
2,danielle_pilot,1.0,TrialDigitSpan,1.0,1.1569058895111155,1.5299036162240165,0.49932692538295637,0.3655954283110929,1.348395586013794,1.348395586013794,1.811152696609504,1.1569058895111155,1.1569058895111155,,none
3,danielle_pilot,1.0,TrialDigitSpan,1.0,1.0760900974273682,1.5299036162240165,0.49932692538295637,0.3655954283110929,1.348395586013794,1.348395586013794,1.811152696609504,1.1569058895111155,1.0760900974273682,,none
4,danielle_pilot,1.0,TrialDigitSpan,1.0,1.4461324214935305,1.5299036162240165,0.49932692538295637,0.3655954283110929,1.348395586013794,1.348395586013794,1.811152696609504,1.1569058895111155,1.4461324214935305,,none
5,danielle_pilot,1.0,TrialDigitSpan,1.0,1.3424100875854492,1.5299036162240165,0.49932692538295637,0.3655954283110929,1.348395586013794,1.348395586013794,1.811152696609504,1.1569058895111155,1.3424100875854492,,none
6,danielle_pilot,1.0,TrialDigitSpan,1.0,2.528238534927354,1.5299036162240165,0.49932692538295637,0.3655954283110929,1.348395586013794,1.348395586013794,1.811152696609504,1.1569058895111155,2.528238534927354,,none
7,danielle_pilot,1.0,TrialDigitSpan,2.0,1.5169415473937988,1.647599273257776,0.6241407036439277,0.45212641468755155,1.4710657596588137,1.5169415473937988,1.4710657596588137,3.0,1.5169415473937988,,SS-DS
8,danielle_pilot,1.0,TrialDigitSpan,2.0,1.4710657596588137,1.647599273257776,0.6241407036439277,0.45212641468755155,1.4710657596588137,1.5169415473937988,1.4710657596588137,3.0,1.4710657596588137,,none
9,danielle_pilot,1.0,TrialDigitSpan,2.0,3.0,1.647599273257776,0.6241407036439277,0.45212641468755155,1.4710657596588137,1.5169415473937988,1.4710657596588137,3.0,3.0,,none
10,danielle_pilot,1.0,TrialDigitSpan,2.0,1.2626211643218708,1.647599273257776,0.6241407036439277,0.45212641468755155,1.4710657596588137,1.5169415473937988,1.4710657596588137,3.0,1.2626211643218708,,none
11,danielle_pilot,1.0,TrialDigitSpan,2.0,1.0472261905670166,1.647599273257776,0.6241407036439277,0.45212641468755155,1.4710657596588137,1.5169415473937988,1.4710657596588137,3.0,1.0472261905670166,,none
12,danielle_pilot,1.0,TrialDigitSpan,2.0,1.6765482425689695,1.647599273257776,0.6241407036439277,0.45212641468755155,1.4710657596588137,1.5169415473937988,1.4710657596588137,3.0,1.6765482425689695,,none
13,danielle_pilot,1.0,TrialDigitSpan,2.0,1.3942694664001465,1.647599273257776,0.6241407036439277,0.45212641468755155,1.4710657596588137,1.5169415473937988,1.4710657596588137,3.0,1.3942694664001465,,none
14,danielle_pilot,1.0,TrialDigitSpan,2.0,2.30081844329834,1.647599273257776,0.6241407036439277,0.45212641468755155,1.4710657596588137,1.5169415473937988,1.4710657596588137,3.0,2.30081844329834,,none
15,danielle_pilot,1.0,TrialDigitSpan,2.0,1.1589026451110271,1.647599273257776,0.6241407036439277,0.45212641468755155,1.4710657596588137,1.5169415473937988,1.4710657596588137,3.0,1.1589026451110271,,none
16,danielle_pilot,1.0,TrialDigitSpan,3.0,1.93884706497181,1.5569500393337294,0.6240535048635156,0.4471850748415599,1.3344311714171226,1.93884706497181,1.1678760051727295,1.4820361137390137,1.93884706497181,,SR-DS
17,danielle_pilot,1.0,TrialDigitSpan,3.0,1.1678760051727295,1.5569500393337294,0.6240535048635156,0.4471850748415599,1.3344311714171226,1.93884706497181,1.1678760051727295,1.4820361137390137,1.1678760051727295,,none
18,danielle_pilot,1.0,TrialDigitSpan,3.0,1.4820361137390137,1.5569500393337294,0.6240535048635156,0.4471850748415599,1.3344311714171226,1.93884706497181,1.1678760051727295,1.4820361137390137,1.4820361137390137,,none
19,danielle_pilot,1.0,TrialDigitSpan,3.0,0.9155509471892174,1.5569500393337294,0.6240535048635156,0.4471850748415599,1.3344311714171226,1.93884706497181,1.1678760051727295,1.4820361137390137,0.9155509471892174,,none
20,danielle_pilot,1.0,TrialDigitSpan,3.0,1.744335889816398,1.5569500393337294,0.6240535048635156,0.4471850748415599,1.3344311714171226,1.93884706497181,1.1678760051727295,1.4820361137390137,1.744335889816398,,none
21,danielle_pilot,1.0,TrialDigitSpan,3.0,1.3344311714171226,1.5569500393337294,0.6240535048635156,0.4471850748415599,1.3344311714171226,1.93884706497181,1.1678760051727295,1.4820361137390137,1.3344311714171226,,none
22,danielle_pilot,1.0,TrialDigitSpan,3.0,1.2087371349334717,1.5569500393337294,0.6240535048635156,0.4471850748415599,1.3344311714171226,1.93884706497181,1.1678760051727295,1.4820361137390137,1.2087371349334717,,none
23,danielle_pilot,1.0,TrialDigitSpan,3.0,1.2207360267638023,1.5569500393337294,0.6240535048635156,0.4471850748415599,1.3344311714171226,1.93884706497181,1.1678760051727295,1.4820361137390137,1.2207360267638023,,none
24,danielle_pilot,1.0,TrialDigitSpan,3.0,3.0,1.5569500393337294,0.6240535048635156,0.4471850748415599,1.3344311714171226,1.93884706497181,1.1678760051727295,1.4820361137390137,3.0,,none
25,danielle_pilot,1.0,TrialDigitSpan,4.0,2.3038403987884517,1.4527771737840314,0.4330142076122214,0.3142737635859567,1.3164775371551514,2.3038403987884517,1.9019131660461424,0.7928783893585205,2.3038403987884517,,SS-DS
26,danielle_pilot,1.0,TrialDigitSpan,4.0,1.9019131660461424,1.4527771737840314,0.4330142076122214,0.3142737635859567,1.3164775371551514,2.3038403987884517,1.9019131660461424,0.7928783893585205,1.9019131660461424,,none
27,danielle_pilot,1.0,TrialDigitSpan,4.0,0.7928783893585205,1.4527771737840314,0.4330142076122214,0.3142737635859567,1.3164775371551514,2.3038403987884517,1.9019131660461424,0.7928783893585205,0.7928783893585205,,none
28,danielle_pilot,1.0,TrialDigitSpan,4.0,1.3603293895721436,1.4527771737840314,0.4330142076122214,0.3142737635859567,1.3164775371551514,2.3038403987884517,1.9019131660461424,0.7928783893585205,1.3603293895721436,,none
29,danielle_pilot,1.0,TrialDigitSpan,4.0,1.5668098926543053,1.4527771737840314,0.4330142076122214,0.3142737635859567,1.3164775371551514,2.3038403987884517,1.9019131660461424,0.7928783893585205,1.5668098926543053,,none
30,danielle_pilot,1.0,TrialDigitSpan,4.0,1.3164775371551514,1.4527771737840314,0.4330142076122214,0.3142737635859567,1.3164775371551514,2.3038403987884517,1.9019131660461424,0.7928783893585205,1.3164775371551514,,none
31,danielle_pilot,1.0,TrialDigitSpan,4.0,1.3105280399320236,1.4527771737840314,0.4330142076122214,0.3142737635859567,1.3164775371551514,2.3038403987884517,1.9019131660461424,0.7928783893585205,1.3105280399320236,,none
32,danielle_pilot,1.0,TrialDigitSpan,4.0,1.2127542495728676,1.4527771737840314,0.4330142076122214,0.3142737635859567,1.3164775371551514,2.3038403987884517,1.9019131660461424,0.7928783893585205,1.2127542495728676,,none
33,danielle_pilot,1.0,TrialDigitSpan,4.0,1.3094635009766762,1.4527771737840314,0.4330142076122214,0.3142737635859567,1.3164775371551514,2.3038403987884517,1.9019131660461424,0.7928783893585205,1.3094635009766762,,none
34,danielle_pilot,1.0,TrialSpatialRotation,1.0,1.4381885528563885,1.9605427583058423,0.48458889169487823,0.3860070970323393,1.9098916053771973,1.4381885528563885,2.611017465591374,1.9098916053771973,1.4381885528563885,,SS-SR
35,danielle_pilot,1.0,TrialSpatialRotation,1.0,2.611017465591374,1.9605427583058423,0.48458889169487823,0.3860070970323393,1.9098916053771973,1.4381885528563885,2.611017465591374,1.9098916053771973,2.611017465591374,,none
36,danielle_pilot,1.0,TrialSpatialRotation,1.0,1.9098916053771973,1.9605427583058423,0.48458889169487823,0.3860070970323393,1.9098916053771973,1.4381885528563885,2.611017465591374,1.9098916053771973,1.9098916053771973,,none
37,danielle_pilot,1.0,TrialSpatialRotation,1.0,1.9407794475554847,1.9605427583058423,0.48458889169487823,0.3860070970323393,1.9098916053771973,1.4381885528563885,2.611017465591374,1.9098916053771973,1.9407794475554847,,none
38,danielle_pilot,1.0,TrialSpatialRotation,1.0,1.3454344272613523,1.9605427583058423,0.48458889169487823,0.3860070970323393,1.9098916053771973,1.4381885528563885,2.611017465591374,1.9098916053771973,1.3454344272613523,,none
39,danielle_pilot,1.0,TrialSpatialRotation,1.0,1.527913808822575,1.9605427583058423,0.48458889169487823,0.3860070970323393,1.9098916053771973,1.4381885528563885,2.611017465591374,1.9098916053771973,1.527913808822575,,none
40,danielle_pilot,1.0,TrialSpatialRotation,1.0,2.4185655117034908,1.9605427583058423,0.48458889169487823,0.3860070970323393,1.9098916053771973,1.4381885528563885,2.611017465591374,1.9098916053771973,2.4185655117034908,,none
41,danielle_pilot,1.0,TrialSpatialRotation,1.0,1.8640167713165283,1.9605427583058423,0.48458889169487823,0.3860070970323393,1.9098916053771973,1.4381885528563885,2.611017465591374,1.9098916053771973,1.8640167713165283,,none
42,danielle_pilot,1.0,TrialSpatialRotation,1.0,2.5890772342681885,1.9605427583058423,0.48458889169487823,0.3860070970323393,1.9098916053771973,1.4381885528563885,2.611017465591374,1.9098916053771973,2.5890772342681885,,none
43,danielle_pilot,1.0,TrialSpatialRotation,2.0,2.5671346187591557,2.21051999500818,0.6229966672171092,0.5198372140223178,2.2140784263611977,2.5671346187591557,2.2140784263611977,1.5937361717224119,2.5671346187591557,,DS-SR
44,danielle_pilot,1.0,TrialSpatialRotation,2.0,2.2140784263611977,2.21051999500818,0.6229966672171092,0.5198372140223178,2.2140784263611977,2.5671346187591557,2.2140784263611977,1.5937361717224119,2.2140784263611977,,none
45,danielle_pilot,1.0,TrialSpatialRotation,2.0,1.5937361717224119,2.21051999500818,0.6229966672171092,0.5198372140223178,2.2140784263611977,2.5671346187591557,2.2140784263611977,1.5937361717224119,1.5937361717224119,,none
46,danielle_pilot,1.0,TrialSpatialRotation,2.0,1.7233912944791427,2.21051999500818,0.6229966672171092,0.5198372140223178,2.2140784263611977,2.5671346187591557,2.2140784263611977,1.5937361717224119,1.7233912944791427,,none
47,danielle_pilot,1.0,TrialSpatialRotation,2.0,2.8802971839904785,2.21051999500818,0.6229966672171092,0.5198372140223178,2.2140784263611977,2.5671346187591557,2.2140784263611977,1.5937361717224119,2.8802971839904785,,none
48,danielle_pilot,1.0,TrialSpatialRotation,2.0,3.0,2.21051999500818,0.6229966672171092,0.5198372140223178,2.2140784263611977,2.5671346187591557,2.2140784263611977,1.5937361717224119,3.0,,none
49,danielle_pilot,1.0,TrialSpatialRotation,2.0,1.495002269744873,2.21051999500818,0.6229966672171092,0.5198372140223178,2.2140784263611977,2.5671346187591557,2.2140784263611977,1.5937361717224119,1.495002269744873,,none
50,danielle_pilot,1.0,TrialSpatialRotation,3.0,1.8410756587982176,2.444966375827761,0.5956364173084796,0.5106406807899762,2.469394922256413,1.8410756587982176,2.0275757312773517,2.9112141132354736,1.8410756587982176,,DS-SR
51,danielle_pilot,1.0,TrialSpatialRotation,3.0,2.0275757312773517,2.444966375827761,0.5956364173084796,0.5106406807899762,2.469394922256413,1.8410756587982176,2.0275757312773517,2.9112141132354736,2.0275757312773517,,none
52,danielle_pilot,1.0,TrialSpatialRotation,3.0,2.9112141132354736,2.444966375827761,0.5956364173084796,0.5106406807899762,2.469394922256413,1.8410756587982176,2.0275757312773517,2.9112141132354736,2.9112141132354736,,none
53,danielle_pilot,1.0,TrialSpatialRotation,3.0,3.0,2.444966375827761,0.5956364173084796,0.5106406807899762,2.469394922256413,1.8410756587982176,2.0275757312773517,2.9112141132354736,3.0,,none
54,danielle_pilot,1.0,TrialSpatialSpan,1.0,1.4929773807525637,1.8422162873404286,0.5414574513901159,0.46605965555930506,1.5678389072417929,1.4929773807525637,1.1299777030944824,1.5468623638153076,1.4929773807525637,,DS-SS
55,danielle_pilot,1.0,TrialSpatialSpan,1.0,1.1299777030944824,1.8422162873404286,0.5414574513901159,0.46605965555930506,1.5678389072417929,1.4929773807525637,1.1299777030944824,1.5468623638153076,1.1299777030944824,,none
56,danielle_pilot,1.0,TrialSpatialSpan,1.0,1.5468623638153076,1.8422162873404286,0.5414574513901159,0.46605965555930506,1.5678389072417929,1.4929773807525637,1.1299777030944824,1.5468623638153076,1.5468623638153076,,none
57,danielle_pilot,1.0,TrialSpatialSpan,1.0,2.175181388854952,1.8422162873404286,0.5414574513901159,0.46605965555930506,1.5678389072417929,1.4929773807525637,1.1299777030944824,1.5468623638153076,2.175181388854952,,none
58,danielle_pilot,1.0,TrialSpatialSpan,1.0,1.5678389072417929,1.8422162873404286,0.5414574513901159,0.46605965555930506,1.5678389072417929,1.4929773807525637,1.1299777030944824,1.5468623638153076,1.5678389072417929,,none
59,danielle_pilot,1.0,TrialSpatialSpan,1.0,2.408560037612915,1.8422162873404286,0.5414574513901159,0.46605965555930506,1.5678389072417929,1.4929773807525637,1.1299777030944824,1.5468623638153076,2.408560037612915,,none
60,danielle_pilot,1.0,TrialSpatialSpan,1.0,2.5741162300109863,1.8422162873404286,0.5414574513901159,0.46605965555930506,1.5678389072417929,1.4929773807525637,1.1299777030944824,1.5468623638153076,2.5741162300109863,,none
61,danielle_pilot,1.0,TrialSpatialSpan,2.0,1.2915730476378826,2.0254483563559313,0.4137610766883001,0.27856019078469707,2.0535068511962318,1.2915730476378826,1.920863389968929,2.1053709983825684,1.2915730476378826,,DS-SS
62,danielle_pilot,1.0,TrialSpatialSpan,2.0,1.920863389968929,2.0254483563559313,0.4137610766883001,0.27856019078469707,2.0535068511962318,1.2915730476378826,1.920863389968929,2.1053709983825684,1.920863389968929,,none
63,danielle_pilot,1.0,TrialSpatialSpan,2.0,2.1053709983825684,2.0254483563559313,0.4137610766883001,0.27856019078469707,2.0535068511962318,1.2915730476378826,1.920863389968929,2.1053709983825684,2.1053709983825684,,none
64,danielle_pilot,1.0,TrialSpatialSpan,2.0,2.263945341110229,2.0254483563559313,0.4137610766883001,0.27856019078469707,2.0535068511962318,1.2915730476378826,1.920863389968929,2.1053709983825684,2.263945341110229,,none
65,danielle_pilot,1.0,TrialSpatialSpan,2.0,2.653930902481136,2.0254483563559313,0.4137610766883001,0.27856019078469707,2.0535068511962318,1.2915730476378826,1.920863389968929,2.1053709983825684,2.653930902481136,,none
66,danielle_pilot,1.0,TrialSpatialSpan,2.0,2.0535068511962318,2.0254483563559313,0.4137610766883001,0.27856019078469707,2.0535068511962318,1.2915730476378826,1.920863389968929,2.1053709983825684,2.0535068511962318,,none
67,danielle_pilot,1.0,TrialSpatialSpan,2.0,1.8889479637145428,2.0254483563559313,0.4137610766883001,0.27856019078469707,2.0535068511962318,1.2915730476378826,1.920863389968929,2.1053709983825684,1.8889479637145428,,none
68,danielle_pilot,1.0,TrialSpatialSpan,3.0,2.444463968276977,2.0519589847988677,0.4606068727789251,0.30090256090516543,1.9836947917938232,2.444463968276977,1.9896786212921145,1.339419364929313,2.444463968276977,,SR-SS
69,danielle_pilot,1.0,TrialSpatialSpan,3.0,1.9896786212921145,2.0519589847988677,0.4606068727789251,0.30090256090516543,1.9836947917938232,2.444463968276977,1.9896786212921145,1.339419364929313,1.9896786212921145,,none
70,danielle_pilot,1.0,TrialSpatialSpan,3.0,1.339419364929313,2.0519589847988677,0.4606068727789251,0.30090256090516543,1.9836947917938232,2.444463968276977,1.9896786212921145,1.339419364929313,1.339419364929313,,none
71,danielle_pilot,1.0,TrialSpatialSpan,3.0,1.9617524147033687,2.0519589847988677,0.4606068727789251,0.30090256090516543,1.9836947917938232,2.444463968276977,1.9896786212921145,1.339419364929313,1.9617524147033687,,none
72,danielle_pilot,1.0,TrialSpatialSpan,3.0,1.9667377471923828,2.0519589847988677,0.4606068727789251,0.30090256090516543,1.9836947917938232,2.444463968276977,1.9896786212921145,1.339419364929313,1.9667377471923828,,none
73,danielle_pilot,1.0,TrialSpatialSpan,3.0,2.0654745101928706,2.0519589847988677,0.4606068727789251,0.30090256090516543,1.9836947917938232,2.444463968276977,1.9896786212921145,1.339419364929313,2.0654745101928706,,none
74,danielle_pilot,1.0,TrialSpatialSpan,3.0,3.0,2.0519589847988677,0.4606068727789251,0.30090256090516543,1.9836947917938232,2.444463968276977,1.9896786212921145,1.339419364929313,3.0,,none
75,danielle_pilot,1.0,TrialSpatialSpan,3.0,1.71640944480896,2.0519589847988677,0.4606068727789251,0.30090256090516543,1.9836947917938232,2.444463968276977,1.9896786212921145,1.339419364929313,1.71640944480896,,none
76,danielle_pilot,1.0,TrialSpatialSpan,3.0,1.9836947917938232,2.0519589847988677,0.4606068727789251,0.30090256090516543,1.9836947917938232,2.444463968276977,1.9896786212921145,1.339419364929313,1.9836947917938232,,none
77,danielle_pilot,2.0,TrialDigitSpan,1.0,0.7689445018768309,1.5442987169538875,0.5223955060180121,0.43418633207990326,1.4690701961517334,0.7689445018768309,1.3424096107485184,2.0395469665531887,0.7689445018768309,,SS-DS
78,danielle_pilot,2.0,TrialDigitSpan,1.0,1.3424096107485184,1.5442987169538875,0.5223955060180121,0.43418633207990326,1.4690701961517334,0.7689445018768309,1.3424096107485184,2.0395469665531887,1.3424096107485184,,none
79,danielle_pilot,2.0,TrialDigitSpan,1.0,2.0395469665531887,1.5442987169538875,0.5223955060180121,0.43418633207990326,1.4690701961517334,0.7689445018768309,1.3424096107485184,2.0395469665531887,2.0395469665531887,,none
80,danielle_pilot,2.0,TrialDigitSpan,1.0,1.4690701961517334,1.5442987169538875,0.5223955060180121,0.43418633207990326,1.4690701961517334,0.7689445018768309,1.3424096107485184,2.0395469665531887,1.4690701961517334,,none
81,danielle_pilot,2.0,TrialDigitSpan,1.0,2.0844266414642334,1.5442987169538875,0.5223955060180121,0.43418633207990326,1.4690701961517334,0.7689445018768309,1.3424096107485184,2.0395469665531887,2.0844266414642334,,none
82,danielle_pilot,2.0,TrialDigitSpan,1.0,2.0285747051239014,1.5442987169538875,0.5223955060180121,0.43418633207990326,1.4690701961517334,0.7689445018768309,1.3424096107485184,2.0395469665531887,2.0285747051239014,,none
83,danielle_pilot,2.0,TrialDigitSpan,1.0,1.0771183967588058,1.5442987169538875,0.5223955060180121,0.43418633207990326,1.4690701961517334,0.7689445018768309,1.3424096107485184,2.0395469665531887,1.0771183967588058,,none
84,danielle_pilot,2.0,TrialSpatialRotation,1.0,1.99666094779991,2.2592136263846783,0.5388960433571324,0.38273185491544837,2.1402759552000816,1.99666094779991,3.0,1.7563025951385498,1.99666094779991,,NONE-SR
85,danielle_pilot,2.0,TrialSpatialRotation,1.0,3.0,2.2592136263846783,0.5388960433571324,0.38273185491544837,2.1402759552000816,1.99666094779991,3.0,1.7563025951385498,3.0,,none
86,danielle_pilot,2.0,TrialSpatialRotation,1.0,1.7563025951385498,2.2592136263846783,0.5388960433571324,0.38273185491544837,2.1402759552000816,1.99666094779991,3.0,1.7563025951385498,1.7563025951385498,,none
87,danielle_pilot,2.0,TrialSpatialRotation,1.0,2.2838909626002533,2.2592136263846783,0.5388960433571324,0.38273185491544837,2.1402759552000816,1.99666094779991,3.0,1.7563025951385498,2.2838909626002533,,none
88,danielle_pilot,2.0,TrialSpatialRotation,2.0,1.5378854274747482,2.240385562181359,0.495506767061838,0.3895859420300098,2.3068304061887375,1.5378854274747482,2.373651266097795,2.2400095462796803,1.5378854274747482,,SS-SR
89,danielle_pilot,2.0,TrialSpatialRotation,2.0,2.373651266097795,2.240385562181359,0.495506767061838,0.3895859420300098,2.3068304061887375,1.5378854274747482,2.373651266097795,2.2400095462796803,2.373651266097795,,none
90,danielle_pilot,2.0,TrialSpatialRotation,2.0,2.2400095462796803,2.240385562181359,0.495506767061838,0.3895859420300098,2.3068304061887375,1.5378854274747482,2.373651266097795,2.2400095462796803,2.2400095462796803,,none
91,danielle_pilot,2.0,TrialSpatialRotation,2.0,2.5092868804929367,2.240385562181359,0.495506767061838,0.3895859420300098,2.3068304061887375,1.5378854274747482,2.373651266097795,2.2400095462796803,2.5092868804929367,,none
92,danielle_pilot,2.0,TrialSpatialRotation,2.0,1.9447999000547045,2.240385562181359,0.495506767061838,0.3895859420300098,2.3068304061887375,1.5378854274747482,2.373651266097795,2.2400095462796803,1.9447999000547045,,none
93,danielle_pilot,2.0,TrialSpatialRotation,2.0,2.636947870254744,2.240385562181359,0.495506767061838,0.3895859420300098,2.3068304061887375,1.5378854274747482,2.373651266097795,2.2400095462796803,2.636947870254744,,none
94,danielle_pilot,2.0,TrialSpatialRotation,2.0,1.6805036067962646,2.240385562181359,0.495506767061838,0.3895859420300098,2.3068304061887375,1.5378854274747482,2.373651266097795,2.2400095462796803,1.6805036067962646,,none
95,danielle_pilot,2.0,TrialSpatialRotation,2.0,3.0,2.240385562181359,0.495506767061838,0.3895859420300098,2.3068304061887375,1.5378854274747482,2.373651266097795,2.2400095462796803,3.0,,none
96,danielle_pilot,2.0,TrialSpatialRotation,3.0,1.7582979202268234,1.9980367422103882,0.6268188821752295,0.5009816288948059,1.761288642883187,1.7582979202268234,3.0,1.7882175445558914,1.7582979202268234,,SS-SR
97,danielle_pilot,2.0,TrialSpatialRotation,3.0,3.0,1.9980367422103882,0.6268188821752295,0.5009816288948059,1.761288642883187,1.7582979202268234,3.0,1.7882175445558914,3.0,,none
98,danielle_pilot,2.0,TrialSpatialRotation,3.0,1.7882175445558914,1.9980367422103882,0.6268188821752295,0.5009816288948059,1.761288642883187,1.7582979202268234,3.0,1.7882175445558914,1.7882175445558914,,none
99,danielle_pilot,2.0,TrialSpatialRotation,3.0,1.5578336715698242,1.9980367422103882,0.6268188821752295,0.5009816288948059,1.761288642883187,1.7582979202268234,3.0,1.7882175445558914,1.5578336715698242,,none
100,danielle_pilot,2.0,TrialSpatialRotation,3.0,3.0,1.9980367422103882,0.6268188821752295,0.5009816288948059,1.761288642883187,1.7582979202268234,3.0,1.7882175445558914,3.0,,none
101,danielle_pilot,2.0,TrialSpatialRotation,3.0,1.7642793655395508,1.9980367422103882,0.6268188821752295,0.5009816288948059,1.761288642883187,1.7582979202268234,3.0,1.7882175445558914,1.7642793655395508,,none
102,danielle_pilot,2.0,TrialSpatialRotation,3.0,1.607699632644653,1.9980367422103882,0.6268188821752295,0.5009816288948059,1.761288642883187,1.7582979202268234,3.0,1.7882175445558914,1.607699632644653,,none
103,danielle_pilot,2.0,TrialSpatialRotation,3.0,1.5079658031463623,1.9980367422103882,0.6268188821752295,0.5009816288948059,1.761288642883187,1.7582979202268234,3.0,1.7882175445558914,1.5079658031463623,,none
104,danielle_pilot,2.0,TrialSpatialRotation,4.0,1.7004520893096924,1.794454693794279,0.3252131555203422,0.23785960674288728,1.832598090171814,1.7004520893096924,1.8988893032073972,1.8999500274658203,1.7004520893096924,,SS-SR
105,danielle_pilot,2.0,TrialSpatialRotation,4.0,1.8988893032073972,1.794454693794279,0.3252131555203422,0.23785960674288728,1.832598090171814,1.7004520893096924,1.8988893032073972,1.8999500274658203,1.8988893032073972,,none
106,danielle_pilot,2.0,TrialSpatialRotation,4.0,1.8999500274658203,1.794454693794279,0.3252131555203422,0.23785960674288728,1.832598090171814,1.7004520893096924,1.8988893032073972,1.8999500274658203,1.8999500274658203,,none
107,danielle_pilot,2.0,TrialSpatialRotation,4.0,1.9846925735475909,1.794454693794279,0.3252131555203422,0.23785960674288728,1.832598090171814,1.7004520893096924,1.8988893032073972,1.8999500274658203,1.9846925735475909,,none
108,danielle_pilot,2.0,TrialSpatialRotation,4.0,1.7663068771362305,1.794454693794279,0.3252131555203422,0.23785960674288728,1.832598090171814,1.7004520893096924,1.8988893032073972,1.8999500274658203,1.7663068771362305,,none
109,danielle_pilot,2.0,TrialSpatialRotation,4.0,1.4910120964050293,1.794454693794279,0.3252131555203422,0.23785960674288728,1.832598090171814,1.7004520893096924,1.8988893032073972,1.8999500274658203,1.4910120964050293,,none
110,danielle_pilot,2.0,TrialSpatialRotation,4.0,1.2686092853546145,1.794454693794279,0.3252131555203422,0.23785960674288728,1.832598090171814,1.7004520893096924,1.8988893032073972,1.8999500274658203,1.2686092853546145,,none
111,danielle_pilot,2.0,TrialSpatialRotation,4.0,2.3457252979278564,1.794454693794279,0.3252131555203422,0.23785960674288728,1.832598090171814,1.7004520893096924,1.8988893032073972,1.8999500274658203,2.3457252979278564,,none
112,danielle_pilot,2.0,TrialSpatialRotation,5.0,1.5977272987365725,1.8665083646774292,0.4162879083921782,0.3525565862654501,1.875484108924752,1.5977272987365725,2.2848889827728267,1.4301762580873856,1.5977272987365725,,DS-SR
113,danielle_pilot,2.0,TrialSpatialRotation,5.0,2.2848889827728267,1.8665083646774292,0.4162879083921782,0.3525565862654501,1.875484108924752,1.5977272987365725,2.2848889827728267,1.4301762580873856,2.2848889827728267,,none
114,danielle_pilot,2.0,TrialSpatialRotation,5.0,1.4301762580873856,1.8665083646774292,0.4162879083921782,0.3525565862654501,1.875484108924752,1.5977272987365725,2.2848889827728267,1.4301762580873856,1.4301762580873856,,none
115,danielle_pilot,2.0,TrialSpatialRotation,5.0,2.153240919112932,1.8665083646774292,0.4162879083921782,0.3525565862654501,1.875484108924752,1.5977272987365725,2.2848889827728267,1.4301762580873856,2.153240919112932,,none
116,danielle_pilot,2.0,TrialSpatialSpan,1.0,1.9308364391326904,1.946959376335106,0.2266678069714304,0.16306348641709692,1.9522787332534792,1.9308364391326904,2.0854225158689133,1.8101580142974851,1.9308364391326904,,SR-SS
117,danielle_pilot,2.0,TrialSpatialSpan,1.0,2.0854225158689133,1.946959376335106,0.2266678069714304,0.16306348641709692,1.9522787332534792,1.9308364391326904,2.0854225158689133,1.8101580142974851,2.0854225158689133,,none
118,danielle_pilot,2.0,TrialSpatialSpan,1.0,1.8101580142974851,1.946959376335106,0.2266678069714304,0.16306348641709692,1.9522787332534792,1.9308364391326904,2.0854225158689133,1.8101580142974851,1.8101580142974851,,none
119,danielle_pilot,2.0,TrialSpatialSpan,1.0,2.270925045013428,1.946959376335106,0.2266678069714304,0.16306348641709692,1.9522787332534792,1.9308364391326904,2.0854225158689133,1.8101580142974851,2.270925045013428,,none
120,danielle_pilot,2.0,TrialSpatialSpan,1.0,1.973721027374268,1.946959376335106,0.2266678069714304,0.16306348641709692,1.9522787332534792,1.9308364391326904,2.0854225158689133,1.8101580142974851,1.973721027374268,,none
121,danielle_pilot,2.0,TrialSpatialSpan,1.0,1.6106932163238523,1.946959376335106,0.2266678069714304,0.16306348641709692,1.9522787332534792,1.9308364391326904,2.0854225158689133,1.8101580142974851,1.6106932163238523,,none
122,danielle_pilot,2.0,TrialSpatialSpan,2.0,2.3307685852048508,2.0720261505671584,0.32936186780066534,0.29855358357329403,2.280900239944458,2.3307685852048508,2.3347558975219727,2.386617422103882,2.3307685852048508,,SR-SS
123,danielle_pilot,2.0,TrialSpatialSpan,2.0,2.3347558975219727,2.0720261505671584,0.32936186780066534,0.29855358357329403,2.280900239944458,2.3307685852048508,2.3347558975219727,2.386617422103882,2.3347558975219727,,none
124,danielle_pilot,2.0,TrialSpatialSpan,2.0,2.386617422103882,2.0720261505671584,0.32936186780066534,0.29855358357329403,2.280900239944458,2.3307685852048508,2.3347558975219727,2.386617422103882,2.386617422103882,,none
125,danielle_pilot,2.0,TrialSpatialSpan,2.0,1.7174057960510254,2.0720261505671584,0.32936186780066534,0.29855358357329403,2.280900239944458,2.3307685852048508,2.3347558975219727,2.386617422103882,1.7174057960510254,,none
126,danielle_pilot,2.0,TrialSpatialSpan,2.0,2.280900239944458,2.0720261505671584,0.32936186780066534,0.29855358357329403,2.280900239944458,2.3307685852048508,2.3347558975219727,2.386617422103882,2.280900239944458,,none
127,danielle_pilot,2.0,TrialSpatialSpan,2.0,1.6625235080718994,2.0720261505671584,0.32936186780066534,0.29855358357329403,2.280900239944458,2.3307685852048508,2.3347558975219727,2.386617422103882,1.6625235080718994,,none
128,danielle_pilot,2.0,TrialSpatialSpan,2.0,1.7912116050720217,2.0720261505671584,0.32936186780066534,0.29855358357329403,2.280900239944458,2.3307685852048508,2.3347558975219727,2.386617422103882,1.7912116050720217,,none
129,danielle_pilot,2.0,TrialSpatialSpan,3.0,1.591741323470842,1.8222726072583555,0.5383433787148504,0.3395868320854528,1.6525797843933103,1.591741323470842,1.75829815864563,1.6525797843933103,1.591741323470842,,SR-SS
130,danielle_pilot,2.0,TrialSpatialSpan,3.0,1.75829815864563,1.8222726072583555,0.5383433787148504,0.3395868320854528,1.6525797843933103,1.591741323470842,1.75829815864563,1.6525797843933103,1.75829815864563,,none
131,danielle_pilot,2.0,TrialSpatialSpan,3.0,1.6525797843933103,1.8222726072583555,0.5383433787148504,0.3395868320854528,1.6525797843933103,1.591741323470842,1.75829815864563,1.6525797843933103,1.6525797843933103,,none
132,danielle_pilot,2.0,TrialSpatialSpan,3.0,1.500985860824585,1.8222726072583555,0.5383433787148504,0.3395868320854528,1.6525797843933103,1.591741323470842,1.75829815864563,1.6525797843933103,1.500985860824585,,none
133,danielle_pilot,2.0,TrialSpatialSpan,3.0,1.833099126815796,1.8222726072583555,0.5383433787148504,0.3395868320854528,1.6525797843933103,1.591741323470842,1.75829815864563,1.6525797843933103,1.833099126815796,,none
134,danielle_pilot,2.0,TrialSpatialSpan,3.0,3.0,1.8222726072583555,0.5383433787148504,0.3395868320854528,1.6525797843933103,1.591741323470842,1.75829815864563,1.6525797843933103,3.0,,none
135,danielle_pilot,2.0,TrialSpatialSpan,3.0,1.4192039966583252,1.8222726072583555,0.5383433787148504,0.3395868320854528,1.6525797843933103,1.591741323470842,1.75829815864563,1.6525797843933103,1.4192039966583252,,none
136,danielle_pilot,2.0,TrialSpatialSpan,4.0,1.5857586860656738,2.0690415246144767,0.4507885910125835,0.30429286372918785,1.9517803192138672,1.5857586860656738,2.2031080722811107,1.81714153289704,1.5857586860656738,,SR-SS
137,danielle_pilot,2.0,TrialSpatialSpan,4.0,2.2031080722811107,2.0690415246144767,0.4507885910125835,0.30429286372918785,1.9517803192138672,1.5857586860656738,2.2031080722811107,1.81714153289704,2.2031080722811107,,none
138,danielle_pilot,2.0,TrialSpatialSpan,4.0,1.81714153289704,2.0690415246144767,0.4507885910125835,0.30429286372918785,1.9517803192138672,1.5857586860656738,2.2031080722811107,1.81714153289704,1.81714153289704,,none
139,danielle_pilot,2.0,TrialSpatialSpan,4.0,3.0,2.0690415246144767,0.4507885910125835,0.30429286372918785,1.9517803192138672,1.5857586860656738,2.2031080722811107,1.81714153289704,3.0,,none
140,danielle_pilot,2.0,TrialSpatialSpan,4.0,1.9517803192138672,2.0690415246144767,0.4507885910125835,0.30429286372918785,1.9517803192138672,1.5857586860656738,2.2031080722811107,1.81714153289704,1.9517803192138672,,none
141,danielle_pilot,2.0,TrialSpatialSpan,4.0,1.9378194808959959,2.0690415246144767,0.4507885910125835,0.30429286372918785,1.9517803192138672,1.5857586860656738,2.2031080722811107,1.81714153289704,1.9378194808959959,,none
142,danielle_pilot,2.0,TrialSpatialSpan,4.0,1.9876825809476488,2.0690415246144767,0.4507885910125835,0.30429286372918785,1.9517803192138672,1.5857586860656738,2.2031080722811107,1.81714153289704,1.9876825809476488,,none
143,danielle_pilot,3.0,TrialDigitSpan,1.0,1.106042146683194,1.50929216543841,0.28273737315122094,0.2345914310876652,1.626150965690158,1.106042146683194,1.646596193313144,1.2087678909306303,1.106042146683194,,SR-DS
144,danielle_pilot,3.0,TrialDigitSpan,1.0,1.646596193313144,1.50929216543841,0.28273737315122094,0.2345914310876652,1.626150965690158,1.106042146683194,1.646596193313144,1.2087678909306303,1.646596193313144,,none
145,danielle_pilot,3.0,TrialDigitSpan,1.0,1.2087678909306303,1.50929216543841,0.28273737315122094,0.2345914310876652,1.626150965690158,1.106042146683194,1.646596193313144,1.2087678909306303,1.2087678909306303,,none
146,danielle_pilot,3.0,TrialDigitSpan,1.0,1.6057057380671722,1.50929216543841,0.28273737315122094,0.2345914310876652,1.626150965690158,1.106042146683194,1.646596193313144,1.2087678909306303,1.6057057380671722,,none
147,danielle_pilot,3.0,TrialDigitSpan,1.0,1.808164358139038,1.50929216543841,0.28273737315122094,0.2345914310876652,1.626150965690158,1.106042146683194,1.646596193313144,1.2087678909306303,1.808164358139038,,none
148,danielle_pilot,3.0,TrialDigitSpan,1.0,1.680476665497281,1.50929216543841,0.28273737315122094,0.2345914310876652,1.626150965690158,1.106042146683194,1.646596193313144,1.2087678909306303,1.680476665497281,,none
149,danielle_pilot,3.0,TrialDigitSpan,2.0,1.1249911785125732,1.529909054438349,0.2922447005713094,0.21808338165290783,1.5373903512954712,1.1249911785125732,1.5548436641693115,1.2905488014221191,1.1249911785125732,,SS-DS
150,danielle_pilot,3.0,TrialDigitSpan,2.0,1.5548436641693115,1.529909054438349,0.2922447005713094,0.21808338165290783,1.5373903512954712,1.1249911785125732,1.5548436641693115,1.2905488014221191,1.5548436641693115,,none
151,danielle_pilot,3.0,TrialDigitSpan,2.0,1.2905488014221191,1.529909054438349,0.2922447005713094,0.21808338165290783,1.5373903512954712,1.1249911785125732,1.5548436641693115,1.2905488014221191,1.2905488014221191,,none
152,danielle_pilot,3.0,TrialDigitSpan,2.0,1.5199370384216309,1.529909054438349,0.2922447005713094,0.21808338165290783,1.5373903512954712,1.1249911785125732,1.5548436641693115,1.2905488014221191,1.5199370384216309,,none
153,danielle_pilot,3.0,TrialDigitSpan,2.0,1.7852253913883942,1.529909054438349,0.2922447005713094,0.21808338165290783,1.5373903512954712,1.1249911785125732,1.5548436641693115,1.2905488014221191,1.7852253913883942,,none
154,danielle_pilot,3.0,TrialDigitSpan,2.0,1.9039082527160645,1.529909054438349,0.2922447005713094,0.21808338165290783,1.5373903512954712,1.1249911785125732,1.5548436641693115,1.2905488014221191,1.9039082527160645,,none
155,danielle_pilot,3.0,TrialDigitSpan,3.0,2.418564558029175,1.6356312831243638,0.4980329007115065,0.3883017169104177,1.5294106006626862,2.418564558029175,1.2057752609248382,1.1130235195159912,2.418564558029175,,SR-DS
156,danielle_pilot,3.0,TrialDigitSpan,3.0,1.2057752609248382,1.6356312831243638,0.4980329007115065,0.3883017169104177,1.5294106006626862,2.418564558029175,1.2057752609248382,1.1130235195159912,1.2057752609248382,,none
157,danielle_pilot,3.0,TrialDigitSpan,3.0,1.1130235195159912,1.6356312831243638,0.4980329007115065,0.3883017169104177,1.5294106006626862,2.418564558029175,1.2057752609248382,1.1130235195159912,1.1130235195159912,,none
158,danielle_pilot,3.0,TrialDigitSpan,3.0,1.5089645385742188,1.6356312831243638,0.4980329007115065,0.3883017169104177,1.5294106006626862,2.418564558029175,1.2057752609248382,1.1130235195159912,1.5089645385742188,,none
159,danielle_pilot,3.0,TrialDigitSpan,3.0,1.5498566627511536,1.6356312831243638,0.4980329007115065,0.3883017169104177,1.5294106006626862,2.418564558029175,1.2057752609248382,1.1130235195159912,1.5498566627511536,,none
160,danielle_pilot,3.0,TrialDigitSpan,3.0,2.0176031589508057,1.6356312831243638,0.4980329007115065,0.3883017169104177,1.5294106006626862,2.418564558029175,1.2057752609248382,1.1130235195159912,2.0176031589508057,,none
161,danielle_pilot,3.0,TrialDigitSpan,4.0,1.4371564388275146,1.4226953983306885,0.12214330085130036,0.08302748203277582,1.4416441917419434,1.4371564388275146,1.5508527755737305,1.4461319446563718,1.4371564388275146,,SR-DS
162,danielle_pilot,3.0,TrialDigitSpan,4.0,1.5508527755737305,1.4226953983306885,0.12214330085130036,0.08302748203277582,1.4416441917419434,1.4371564388275146,1.5508527755737305,1.4461319446563718,1.5508527755737305,,none
163,danielle_pilot,3.0,TrialDigitSpan,4.0,1.4461319446563718,1.4226953983306885,0.12214330085130036,0.08302748203277582,1.4416441917419434,1.4371564388275146,1.5508527755737305,1.4461319446563718,1.4461319446563718,,none
164,danielle_pilot,3.0,TrialDigitSpan,4.0,1.2566404342651367,1.4226953983306885,0.12214330085130036,0.08302748203277582,1.4416441917419434,1.4371564388275146,1.5508527755737305,1.4461319446563718,1.2566404342651367,,none
165,danielle_pilot,3.0,TrialSpatialRotation,1.0,1.790211915969394,2.0751926302905304,0.34460260333164516,0.2939557433126084,2.0435348749156224,1.790211915969394,1.7722618579864502,2.4414389133444274,1.790211915969394,,NONE-SR
166,danielle_pilot,3.0,TrialSpatialRotation,1.0,1.7722618579864502,2.0751926302905304,0.34460260333164516,0.2939557433126084,2.0435348749156224,1.790211915969394,1.7722618579864502,2.4414389133444274,1.7722618579864502,,none
167,danielle_pilot,3.0,TrialSpatialRotation,1.0,2.4414389133444274,2.0751926302905304,0.34460260333164516,0.2939557433126084,2.0435348749156224,1.790211915969394,1.7722618579864502,2.4414389133444274,2.4414389133444274,,none
168,danielle_pilot,3.0,TrialSpatialRotation,1.0,2.2968578338618504,2.0751926302905304,0.34460260333164516,0.2939557433126084,2.0435348749156224,1.790211915969394,1.7722618579864502,2.4414389133444274,2.2968578338618504,,none
169,danielle_pilot,3.0,TrialSpatialRotation,2.0,1.4521167278289795,1.9021315839553001,0.5883605350974567,0.4769742518294691,1.8361196517939788,1.4521167278289795,2.130301952361151,2.911215782165528,1.4521167278289795,,SS-SR
170,danielle_pilot,3.0,TrialSpatialRotation,2.0,2.130301952361151,1.9021315839553001,0.5883605350974567,0.4769742518294691,1.8361196517939788,1.4521167278289795,2.130301952361151,2.911215782165528,2.130301952361151,,none
171,danielle_pilot,3.0,TrialSpatialRotation,2.0,2.911215782165528,1.9021315839553001,0.5883605350974567,0.4769742518294691,1.8361196517939788,1.4521167278289795,2.130301952361151,2.911215782165528,2.911215782165528,,none
172,danielle_pilot,3.0,TrialSpatialRotation,2.0,1.8361196517939788,1.9021315839553001,0.5883605350974567,0.4769742518294691,1.8361196517939788,1.4521167278289795,2.130301952361151,2.911215782165528,1.8361196517939788,,none
173,danielle_pilot,3.0,TrialSpatialRotation,2.0,1.6126570701599119,1.9021315839553001,0.5883605350974567,0.4769742518294691,1.8361196517939788,1.4521167278289795,2.130301952361151,2.911215782165528,1.6126570701599119,,none
174,danielle_pilot,3.0,TrialSpatialRotation,2.0,2.2280399799342376,1.9021315839553001,0.5883605350974567,0.4769742518294691,1.8361196517939788,1.4521167278289795,2.130301952361151,2.911215782165528,2.2280399799342376,,none
175,danielle_pilot,3.0,TrialSpatialRotation,2.0,1.4091997146601898,1.9021315839553001,0.5883605350974567,0.4769742518294691,1.8361196517939788,1.4521167278289795,2.130301952361151,2.911215782165528,1.4091997146601898,,none
176,danielle_pilot,3.0,TrialSpatialRotation,2.0,1.0541806221008299,1.9021315839553001,0.5883605350974567,0.4769742518294691,1.8361196517939788,1.4521167278289795,2.130301952361151,2.911215782165528,1.0541806221008299,,none
177,danielle_pilot,3.0,TrialSpatialRotation,2.0,2.4853527545928955,1.9021315839553001,0.5883605350974567,0.4769742518294691,1.8361196517939788,1.4521167278289795,2.130301952361151,2.911215782165528,2.4853527545928955,,none
178,danielle_pilot,3.0,TrialSpatialRotation,3.0,2.1033761501307713,1.761288791894799,0.40412293103766717,0.3321051523089693,1.8680043220522293,2.1033761501307713,2.3596878051753265,1.3703334331512451,2.1033761501307713,,DS-SR
179,danielle_pilot,3.0,TrialSpatialRotation,3.0,2.3596878051753265,1.761288791894799,0.40412293103766717,0.3321051523089693,1.8680043220522293,2.1033761501307713,2.3596878051753265,1.3703334331512451,2.3596878051753265,,none
180,danielle_pilot,3.0,TrialSpatialRotation,3.0,1.3703334331512451,1.761288791894799,0.40412293103766717,0.3321051523089693,1.8680043220522293,2.1033761501307713,2.3596878051753265,1.3703334331512451,1.3703334331512451,,none
181,danielle_pilot,3.0,TrialSpatialRotation,3.0,1.826116561890558,1.761288791894799,0.40412293103766717,0.3321051523089693,1.8680043220522293,2.1033761501307713,2.3596878051753265,1.3703334331512451,1.826116561890558,,none
182,danielle_pilot,3.0,TrialSpatialRotation,3.0,1.3902769088740572,1.761288791894799,0.40412293103766717,0.3321051523089693,1.8680043220522293,2.1033761501307713,2.3596878051753265,1.3703334331512451,1.3902769088740572,,none
183,danielle_pilot,3.0,TrialSpatialRotation,3.0,1.9098920822139007,1.761288791894799,0.40412293103766717,0.3321051523089693,1.8680043220522293,2.1033761501307713,2.3596878051753265,1.3703334331512451,1.9098920822139007,,none
184,danielle_pilot,3.0,TrialSpatialRotation,3.0,1.1948354244232178,1.761288791894799,0.40412293103766717,0.3321051523089693,1.8680043220522293,2.1033761501307713,2.3596878051753265,1.3703334331512451,1.1948354244232178,,none
185,danielle_pilot,3.0,TrialSpatialRotation,3.0,1.9357919692993164,1.761288791894799,0.40412293103766717,0.3321051523089693,1.8680043220522293,2.1033761501307713,2.3596878051753265,1.3703334331512451,1.9357919692993164,,none
186,danielle_pilot,3.0,TrialSpatialRotation,4.0,2.4295034408569336,2.327223512861514,0.39800989592552494,0.30447152220167034,2.393596887588501,2.4295034408569336,2.2519788742069977,3.0,2.4295034408569336,,DS-SR
187,danielle_pilot,3.0,TrialSpatialRotation,4.0,2.2519788742069977,2.327223512861514,0.39800989592552494,0.30447152220167034,2.393596887588501,2.4295034408569336,2.2519788742069977,3.0,2.2519788742069977,,none
188,danielle_pilot,3.0,TrialSpatialRotation,4.0,3.0,2.327223512861514,0.39800989592552494,0.30447152220167034,2.393596887588501,2.4295034408569336,2.2519788742069977,3.0,3.0,,none
189,danielle_pilot,3.0,TrialSpatialRotation,4.0,1.7004525661473051,2.327223512861514,0.39800989592552494,0.30447152220167034,2.393596887588501,2.4295034408569336,2.2519788742069977,3.0,1.7004525661473051,,none
190,danielle_pilot,3.0,TrialSpatialRotation,4.0,2.393596887588501,2.327223512861514,0.39800989592552494,0.30447152220167034,2.393596887588501,2.4295034408569336,2.2519788742069977,3.0,2.393596887588501,,none
191,danielle_pilot,3.0,TrialSpatialRotation,4.0,2.457427740097046,2.327223512861514,0.39800989592552494,0.30447152220167034,2.393596887588501,2.4295034408569336,2.2519788742069977,3.0,2.457427740097046,,none
192,danielle_pilot,3.0,TrialSpatialRotation,4.0,2.7257113456726074,2.327223512861514,0.39800989592552494,0.30447152220167034,2.393596887588501,2.4295034408569336,2.2519788742069977,3.0,2.7257113456726074,,none
193,danielle_pilot,3.0,TrialSpatialRotation,4.0,2.0275793075561523,2.327223512861514,0.39800989592552494,0.30447152220167034,2.393596887588501,2.4295034408569336,2.2519788742069977,3.0,2.0275793075561523,,none
194,danielle_pilot,3.0,TrialSpatialRotation,4.0,1.9587614536280853,2.327223512861514,0.39800989592552494,0.30447152220167034,2.393596887588501,2.4295034408569336,2.2519788742069977,3.0,1.9587614536280853,,none
195,danielle_pilot,3.0,TrialSpatialSpan,1.0,1.905903577804111,2.107740879058838,0.4945950465677347,0.3510333299634567,2.054006695747603,1.905903577804111,1.7642817497262513,2.1053695678715485,1.905903577804111,,SR-SS
196,danielle_pilot,3.0,TrialSpatialSpan,1.0,1.7642817497262513,2.107740879058838,0.4945950465677347,0.3510333299634567,2.054006695747603,1.905903577804111,1.7642817497262513,2.1053695678715485,1.7642817497262513,,none
197,danielle_pilot,3.0,TrialSpatialSpan,1.0,2.1053695678715485,2.107740879058838,0.4945950465677347,0.3510333299634567,2.054006695747603,1.905903577804111,1.7642817497262513,2.1053695678715485,2.1053695678715485,,none
198,danielle_pilot,3.0,TrialSpatialSpan,1.0,2.523252010344549,2.107740879058838,0.4945950465677347,0.3510333299634567,2.054006695747603,1.905903577804111,1.7642817497262513,2.1053695678715485,2.523252010344549,,none
199,danielle_pilot,3.0,TrialSpatialSpan,1.0,3.0,2.107740879058838,0.4945950465677347,0.3510333299634567,2.054006695747603,1.905903577804111,1.7642817497262513,2.1053695678715485,3.0,,none
200,danielle_pilot,3.0,TrialSpatialSpan,1.0,2.204103946685791,2.107740879058838,0.4945950465677347,0.3510333299634567,2.054006695747603,1.905903577804111,1.7642817497262513,2.1053695678715485,2.204103946685791,,none
201,danielle_pilot,3.0,TrialSpatialSpan,1.0,2.002643823623657,2.107740879058838,0.4945950465677347,0.3510333299634567,2.054006695747603,1.905903577804111,1.7642817497262513,2.1053695678715485,2.002643823623657,,none
202,danielle_pilot,3.0,TrialSpatialSpan,1.0,1.356372356414795,2.107740879058838,0.4945950465677347,0.3510333299634567,2.054006695747603,1.905903577804111,1.7642817497262513,2.1053695678715485,1.356372356414795,,none
203,danielle_pilot,3.0,TrialSpatialSpan,2.0,2.6429312229161037,2.1982914606732415,0.6132454520104532,0.5344078540801244,2.2056013345720658,2.6429312229161037,2.555166721343994,1.8560359478001371,2.6429312229161037,,DS-SS
204,danielle_pilot,3.0,TrialSpatialSpan,2.0,2.555166721343994,2.1982914606732415,0.6132454520104532,0.5344078540801244,2.2056013345720658,2.6429312229161037,2.555166721343994,1.8560359478001371,2.555166721343994,,none
205,danielle_pilot,3.0,TrialSpatialSpan,2.0,1.8560359478001371,2.1982914606732415,0.6132454520104532,0.5344078540801244,2.2056013345720658,2.6429312229161037,2.555166721343994,1.8560359478001371,1.8560359478001371,,none
206,danielle_pilot,3.0,TrialSpatialSpan,2.0,1.5817685127262848,2.1982914606732415,0.6132454520104532,0.5344078540801244,2.2056013345720658,2.6429312229161037,2.555166721343994,1.8560359478001371,1.5817685127262848,,none
207,danielle_pilot,3.0,TrialSpatialSpan,2.0,1.5538463592529297,2.1982914606732415,0.6132454520104532,0.5344078540801244,2.2056013345720658,2.6429312229161037,2.555166721343994,1.8560359478001371,1.5538463592529297,,none
208,danielle_pilot,3.0,TrialSpatialSpan,2.0,3.0,2.1982914606732415,0.6132454520104532,0.5344078540801244,2.2056013345720658,2.6429312229161037,2.555166721343994,1.8560359478001371,3.0,,none
209,danielle_pilot,4.0,TrialDigitSpan,1.0,1.1618919372558594,1.3915290236469673,0.4770040245987468,0.34432977437961665,1.2980287075038177,1.1618919372558594,1.434165477751776,0.932506561278842,1.1618919372558594,,NONE-DS
210,danielle_pilot,4.0,TrialDigitSpan,1.0,1.434165477751776,1.3915290236469673,0.4770040245987468,0.34432977437961665,1.2980287075038177,1.1618919372558594,1.434165477751776,0.932506561278842,1.434165477751776,,none
211,danielle_pilot,4.0,TrialDigitSpan,1.0,0.932506561278842,1.3915290236469673,0.4770040245987468,0.34432977437961665,1.2980287075038177,1.1618919372558594,1.434165477751776,0.932506561278842,0.932506561278842,,none
212,danielle_pilot,4.0,TrialDigitSpan,1.0,2.037552118301392,1.3915290236469673,0.4770040245987468,0.34432977437961665,1.2980287075038177,1.1618919372558594,1.434165477751776,0.932506561278842,2.037552118301392,,none
213,danielle_pilot,4.0,TrialDigitSpan,2.0,0.9953382015223724,1.3241683755600857,0.34840902549564906,0.29353755834179135,1.4171772003169283,0.9953382015223724,1.6226608753204346,1.4171772003169283,0.9953382015223724,,SR-DS
214,danielle_pilot,4.0,TrialDigitSpan,2.0,1.6226608753204346,1.3241683755600857,0.34840902549564906,0.29353755834179135,1.4171772003169283,0.9953382015223724,1.6226608753204346,1.4171772003169283,1.6226608753204346,,none
215,danielle_pilot,4.0,TrialDigitSpan,2.0,1.4171772003169283,1.3241683755600857,0.34840902549564906,0.29353755834179135,1.4171772003169283,0.9953382015223724,1.6226608753204346,1.4171772003169283,1.4171772003169283,,none
216,danielle_pilot,4.0,TrialDigitSpan,2.0,1.8370873928070068,1.3241683755600857,0.34840902549564906,0.29353755834179135,1.4171772003169283,0.9953382015223724,1.6226608753204346,1.4171772003169283,1.8370873928070068,,none
217,danielle_pilot,4.0,TrialDigitSpan,2.0,1.4471294879922425,1.3241683755600857,0.34840902549564906,0.29353755834179135,1.4171772003169283,0.9953382015223724,1.6226608753204346,1.4171772003169283,1.4471294879922425,,none
218,danielle_pilot,4.0,TrialDigitSpan,2.0,0.9863622188559019,1.3241683755600857,0.34840902549564906,0.29353755834179135,1.4171772003169283,0.9953382015223724,1.6226608753204346,1.4171772003169283,0.9863622188559019,,none
219,danielle_pilot,4.0,TrialDigitSpan,2.0,0.9634232521057128,1.3241683755600857,0.34840902549564906,0.29353755834179135,1.4171772003169283,0.9953382015223724,1.6226608753204346,1.4171772003169283,0.9634232521057128,,none
220,danielle_pilot,4.0,TrialDigitSpan,3.0,1.2147514820098877,1.6377451121807098,0.3218445324891441,0.24275656789541247,1.5583324432373047,1.2147514820098877,1.5279138088226318,1.6695349216461182,1.2147514820098877,,SR-DS
221,danielle_pilot,4.0,TrialDigitSpan,3.0,1.5279138088226318,1.6377451121807098,0.3218445324891441,0.24275656789541247,1.5583324432373047,1.2147514820098877,1.5279138088226318,1.6695349216461182,1.5279138088226318,,none
222,danielle_pilot,4.0,TrialDigitSpan,3.0,1.6695349216461182,1.6377451121807098,0.3218445324891441,0.24275656789541247,1.5583324432373047,1.2147514820098877,1.5279138088226318,1.6695349216461182,1.6695349216461182,,none
223,danielle_pilot,4.0,TrialDigitSpan,3.0,1.5887510776519775,1.6377451121807098,0.3218445324891441,0.24275656789541247,1.5583324432373047,1.2147514820098877,1.5279138088226318,1.6695349216461182,1.5887510776519775,,none
224,danielle_pilot,4.0,TrialDigitSpan,3.0,1.3862929344177246,1.6377451121807098,0.3218445324891441,0.24275656789541247,1.5583324432373047,1.2147514820098877,1.5279138088226318,1.6695349216461182,1.3862929344177246,,none
225,danielle_pilot,4.0,TrialDigitSpan,3.0,1.4999899864196775,1.6377451121807098,0.3218445324891441,0.24275656789541247,1.5583324432373047,1.2147514820098877,1.5279138088226318,1.6695349216461182,1.4999899864196775,,none
226,danielle_pilot,4.0,TrialDigitSpan,3.0,2.046525239944458,1.6377451121807098,0.3218445324891441,0.24275656789541247,1.5583324432373047,1.2147514820098877,1.5279138088226318,1.6695349216461182,2.046525239944458,,none
227,danielle_pilot,4.0,TrialDigitSpan,3.0,2.168201446533203,1.6377451121807098,0.3218445324891441,0.24275656789541247,1.5583324432373047,1.2147514820098877,1.5279138088226318,1.6695349216461182,2.168201446533203,,none
228,danielle_pilot,4.0,TrialDigitSpan,4.0,1.4660785198220765,1.616233189900817,0.510587530221413,0.34803231557213654,1.4660785198220765,1.4660785198220765,1.2975316047673005,2.7516417503356934,1.4660785198220765,,SS-DS
229,danielle_pilot,4.0,TrialDigitSpan,4.0,1.2975316047673005,1.616233189900817,0.510587530221413,0.34803231557213654,1.4660785198220765,1.4660785198220765,1.2975316047673005,2.7516417503356934,1.2975316047673005,,none
230,danielle_pilot,4.0,TrialDigitSpan,4.0,2.7516417503356934,1.616233189900817,0.510587530221413,0.34803231557213654,1.4660785198220765,1.4660785198220765,1.2975316047673005,2.7516417503356934,2.7516417503356934,,none
231,danielle_pilot,4.0,TrialDigitSpan,4.0,0.9674127101893646,1.616233189900817,0.510587530221413,0.34803231557213654,1.4660785198220765,1.4660785198220765,1.2975316047673005,2.7516417503356934,0.9674127101893646,,none
232,danielle_pilot,4.0,TrialDigitSpan,4.0,1.3783144950862152,1.616233189900817,0.510587530221413,0.34803231557213654,1.4660785198220765,1.4660785198220765,1.2975316047673005,2.7516417503356934,1.3783144950862152,,none
233,danielle_pilot,4.0,TrialDigitSpan,4.0,1.4331655502319336,1.616233189900817,0.510587530221413,0.34803231557213654,1.4660785198220765,1.4660785198220765,1.2975316047673005,2.7516417503356934,1.4331655502319336,,none
234,danielle_pilot,4.0,TrialDigitSpan,4.0,2.015609502792813,1.616233189900817,0.510587530221413,0.34803231557213654,1.4660785198220765,1.4660785198220765,1.2975316047673005,2.7516417503356934,2.015609502792813,,none
235,danielle_pilot,4.0,TrialDigitSpan,4.0,1.6475937366485596,1.616233189900817,0.510587530221413,0.34803231557213654,1.4660785198220765,1.4660785198220765,1.2975316047673005,2.7516417503356934,1.6475937366485596,,none
236,danielle_pilot,4.0,TrialDigitSpan,4.0,1.5887508392333984,1.616233189900817,0.510587530221413,0.34803231557213654,1.4660785198220765,1.4660785198220765,1.2975316047673005,2.7516417503356934,1.5887508392333984,,none
237,danielle_pilot,4.0,TrialSpatialRotation,1.0,2.0215952396392822,2.4614212910335027,0.440020464901712,0.38563930988304196,2.418531179428328,2.0215952396392822,2.8822925090789795,2.6588892936706543,2.0215952396392822,,DS-SR
238,danielle_pilot,4.0,TrialSpatialRotation,1.0,2.8822925090789795,2.4614212910335027,0.440020464901712,0.38563930988304196,2.418531179428328,2.0215952396392822,2.8822925090789795,2.6588892936706543,2.8822925090789795,,none
239,danielle_pilot,4.0,TrialSpatialRotation,1.0,2.6588892936706543,2.4614212910335027,0.440020464901712,0.38563930988304196,2.418531179428328,2.0215952396392822,2.8822925090789795,2.6588892936706543,2.6588892936706543,,none
240,danielle_pilot,4.0,TrialSpatialRotation,1.0,3.0,2.4614212910335027,0.440020464901712,0.38563930988304196,2.418531179428328,2.0215952396392822,2.8822925090789795,2.6588892936706543,3.0,,none
241,danielle_pilot,4.0,TrialSpatialRotation,1.0,2.1781730651860016,2.4614212910335027,0.440020464901712,0.38563930988304196,2.418531179428328,2.0215952396392822,2.8822925090789795,2.6588892936706543,2.1781730651860016,,none
242,danielle_pilot,4.0,TrialSpatialRotation,1.0,2.027577638626098,2.4614212910335027,0.440020464901712,0.38563930988304196,2.418531179428328,2.0215952396392822,2.8822925090789795,2.6588892936706543,2.027577638626098,,none
243,danielle_pilot,4.0,TrialSpatialRotation,2.0,2.3427355289463776,2.2319033741952126,0.287168863449246,0.23278783261784491,2.308825969696045,2.3427355289463776,1.8809707164764404,2.274916410445712,2.3427355289463776,,SS-SR
244,danielle_pilot,4.0,TrialSpatialRotation,2.0,1.8809707164764404,2.2319033741952126,0.287168863449246,0.23278783261784491,2.308825969696045,2.3427355289463776,1.8809707164764404,2.274916410445712,1.8809707164764404,,none
245,danielle_pilot,4.0,TrialSpatialRotation,2.0,2.274916410445712,2.2319033741952126,0.287168863449246,0.23278783261784491,2.308825969696045,2.3427355289463776,1.8809707164764404,2.274916410445712,2.274916410445712,,none
246,danielle_pilot,4.0,TrialSpatialRotation,2.0,2.3756468296055573,2.2319033741952126,0.287168863449246,0.23278783261784491,2.308825969696045,2.3427355289463776,1.8809707164764404,2.274916410445712,2.3756468296055573,,none
247,danielle_pilot,4.0,TrialSpatialRotation,2.0,2.5491833686828613,2.2319033741952126,0.287168863449246,0.23278783261784491,2.308825969696045,2.3427355289463776,1.8809707164764404,2.274916410445712,2.5491833686828613,,none
248,danielle_pilot,4.0,TrialSpatialRotation,2.0,2.5481860637669342,2.2319033741952126,0.287168863449246,0.23278783261784491,2.308825969696045,2.3427355289463776,1.8809707164764404,2.274916410445712,2.5481860637669342,,none
249,danielle_pilot,4.0,TrialSpatialRotation,2.0,1.7832322120666504,2.2319033741952126,0.287168863449246,0.23278783261784491,2.308825969696045,2.3427355289463776,1.8809707164764404,2.274916410445712,1.7832322120666504,,none
250,danielle_pilot,4.0,TrialSpatialRotation,2.0,2.100355863571167,2.2319033741952126,0.287168863449246,0.23278783261784491,2.308825969696045,2.3427355289463776,1.8809707164764404,2.274916410445712,2.100355863571167,,none
251,danielle_pilot,4.0,TrialSpatialSpan,1.0,1.4710650444030762,1.8498035967350006,0.4570211371833265,0.34800673276186,1.7632850408554077,1.4710650444030762,1.8261170387268064,1.4052436351776123,1.4710650444030762,,DS-SS
252,danielle_pilot,4.0,TrialSpatialSpan,1.0,1.8261170387268064,1.8498035967350006,0.4570211371833265,0.34800673276186,1.7632850408554077,1.4710650444030762,1.8261170387268064,1.4052436351776123,1.8261170387268064,,none
253,danielle_pilot,4.0,TrialSpatialSpan,1.0,1.4052436351776123,1.8498035967350006,0.4570211371833265,0.34800673276186,1.7632850408554077,1.4710650444030762,1.8261170387268064,1.4052436351776123,1.4052436351776123,,none
254,danielle_pilot,4.0,TrialSpatialSpan,1.0,1.7004530429840088,1.8498035967350006,0.4570211371833265,0.34800673276186,1.7632850408554077,1.4710650444030762,1.8261170387268064,1.4052436351776123,1.7004530429840088,,none
255,danielle_pilot,4.0,TrialSpatialSpan,1.0,2.753636360168457,1.8498035967350006,0.4570211371833265,0.34800673276186,1.7632850408554077,1.4710650444030762,1.8261170387268064,1.4052436351776123,2.753636360168457,,none
256,danielle_pilot,4.0,TrialSpatialSpan,1.0,2.0415408611297607,1.8498035967350006,0.4570211371833265,0.34800673276186,1.7632850408554077,1.4710650444030762,1.8261170387268064,1.4052436351776123,2.0415408611297607,,none
257,danielle_pilot,4.0,TrialSpatialSpan,1.0,1.4541122913360596,1.8498035967350006,0.4570211371833265,0.34800673276186,1.7632850408554077,1.4710650444030762,1.8261170387268064,1.4052436351776123,1.4541122913360596,,none
258,danielle_pilot,4.0,TrialSpatialSpan,1.0,2.146260499954224,1.8498035967350006,0.4570211371833265,0.34800673276186,1.7632850408554077,1.4710650444030762,1.8261170387268064,1.4052436351776123,2.146260499954224,,none
259,danielle_pilot,4.0,TrialSpatialSpan,2.0,1.878976345062256,2.259381226130959,0.43821335033415176,0.362667142128532,2.2290377616882324,1.878976345062256,1.9577646255493164,2.652904987335205,1.878976345062256,,DS-SS
260,danielle_pilot,4.0,TrialSpatialSpan,2.0,1.9577646255493164,2.259381226130959,0.43821335033415176,0.362667142128532,2.2290377616882324,1.878976345062256,1.9577646255493164,2.652904987335205,1.9577646255493164,,none
261,danielle_pilot,4.0,TrialSpatialSpan,2.0,2.652904987335205,2.259381226130959,0.43821335033415176,0.362667142128532,2.2290377616882324,1.878976345062256,1.9577646255493164,2.652904987335205,2.652904987335205,,none
262,danielle_pilot,4.0,TrialSpatialSpan,2.0,2.2290377616882324,2.259381226130959,0.43821335033415176,0.362667142128532,2.2290377616882324,1.878976345062256,1.9577646255493164,2.652904987335205,2.2290377616882324,,none
263,danielle_pilot,4.0,TrialSpatialSpan,2.0,1.70241117477417,2.259381226130959,0.43821335033415176,0.362667142128532,2.2290377616882324,1.878976345062256,1.9577646255493164,2.652904987335205,1.70241117477417,,none
264,danielle_pilot,4.0,TrialSpatialSpan,2.0,2.5142769813542145,2.259381226130959,0.43821335033415176,0.362667142128532,2.2290377616882324,1.878976345062256,1.9577646255493164,2.652904987335205,2.5142769813542145,,none
265,danielle_pilot,4.0,TrialSpatialSpan,2.0,2.8802967071533203,2.259381226130959,0.43821335033415176,0.362667142128532,2.2290377616882324,1.878976345062256,1.9577646255493164,2.652904987335205,2.8802967071533203,,none
266,danielle_pilot,4.0,TrialSpatialSpan,3.0,2.5422015190119964,2.1851492226122673,0.4223315565230411,0.34582546353340143,2.1796556711199173,2.5422015190119964,2.7516427040100098,2.0734255313877843,2.5422015190119964,,DS-SS
267,danielle_pilot,4.0,TrialSpatialSpan,3.0,2.7516427040100098,2.1851492226122673,0.4223315565230411,0.34582546353340143,2.1796556711199173,2.5422015190119964,2.7516427040100098,2.0734255313877843,2.7516427040100098,,none
268,danielle_pilot,4.0,TrialSpatialSpan,3.0,2.0734255313877843,2.1851492226122673,0.4223315565230411,0.34582546353340143,2.1796556711199173,2.5422015190119964,2.7516427040100098,2.0734255313877843,2.0734255313877843,,none
269,danielle_pilot,4.0,TrialSpatialSpan,3.0,2.0056369304656982,2.1851492226122673,0.4223315565230411,0.34582546353340143,2.1796556711199173,2.5422015190119964,2.7516427040100098,2.0734255313877843,2.0056369304656982,,none
270,danielle_pilot,4.0,TrialSpatialSpan,3.0,1.7393479347229004,2.1851492226122673,0.4223315565230411,0.34582546353340143,2.1796556711199173,2.5422015190119964,2.7516427040100098,2.0734255313877843,1.7393479347229004,,none
271,danielle_pilot,4.0,TrialSpatialSpan,3.0,2.285885810852051,2.1851492226122673,0.4223315565230411,0.34582546353340143,2.1796556711199173,2.5422015190119964,2.7516427040100098,2.0734255313877843,2.285885810852051,,none
272,danielle_pilot,4.0,TrialSpatialSpan,3.0,1.5388846397390807,2.1851492226122673,0.4223315565230411,0.34582546353340143,2.1796556711199173,2.5422015190119964,2.7516427040100098,2.0734255313877843,1.5388846397390807,,none
273,danielle_pilot,4.0,TrialSpatialSpan,3.0,2.544168710708618,2.1851492226122673,0.4223315565230411,0.34582546353340143,2.1796556711199173,2.5422015190119964,2.7516427040100098,2.0734255313877843,2.544168710708618,,none
