auto_participant_id,participant_id,participant_age,participant_gender,view_history,rt,trial_type,trial_index,time_elapsed,internal_node_id,blueprint_id,check_times,responses,start_time,end_time,stimulus_on,stimulus_off,response_enabled_time,response_time,response_answer,answer_index,response_correct,trial_task_type,,,,,,,,,,,,,,,,,,,,,,,,,,,,,,,
712_62123,1,36,Female,NULL,NULL,ts-info-card,4,235936,0.0-4.0,2020-06-01_blueprint_a8ac75a61d70598951af70a55c22ef89.json,NULL,NULL,236160,236660,NULL,NULL,NULL,NULL,NULL,NULL,NULL,NULL,,,,,,,,,,,,,,,,,,,,,,,,,,,,,,,
712_62123,1,36,Female,NULL,NULL,ts-trial,5,242094,0.0-5.0,2020-06-01_blueprint_a8ac75a61d70598951af70a55c22ef89.json,NULL,NULL,NULL,NULL,236662,"[237164,237664,238165,238665,239162,239663]",239817,242302,0,1,,ts-trial-spatial-rotation,,,,,,,,,,,,,,,,,,,,,,,,,,,,,,,
712_62123,1,36,Female,NULL,NULL,ts-trial,7,248379,0.0-7.0,2020-06-01_blueprint_a8ac75a61d70598951af70a55c22ef89.json,NULL,NULL,NULL,NULL,242948,"[243450,243950,244452,244950,245450,245949]",246101,NULL,NULL,2,NULL,ts-trial-spatial-rotation,,,,,,,,,,,,,,,,,,,,,,,,,,,,,,,
712_62123,1,36,Female,NULL,NULL,ts-trial,9,255360,0.0-9.0,2020-06-01_blueprint_a8ac75a61d70598951af70a55c22ef89.json,NULL,NULL,NULL,NULL,249931,"[250432,250933,251435,251935,252434,252932]",253083,255273,0,0,1,ts-trial-spatial-rotation,,,,,,,,,,,,,,,,,,,,,,,,,,,,,,,
712_62123,1,36,Female,NULL,NULL,ts-trial,11,261699,0.0-11.0,2020-06-01_blueprint_a8ac75a61d70598951af70a55c22ef89.json,NULL,NULL,NULL,NULL,256267,"[256768,257269,257768,258272,258768,259269]",259420,261573,1,1,1,ts-trial-spatial-rotation,,,,,,,,,,,,,,,,,,,,,,,,,,,,,,,
712_62123,1,36,Female,NULL,NULL,ts-trial,13,268549,0.0-13.0,2020-06-01_blueprint_a8ac75a61d70598951af70a55c22ef89.json,NULL,NULL,NULL,NULL,263118,"[263620,264120,264620,265120,265619,266121]",266272,269010,1,1,1,ts-trial-spatial-rotation,,,,,,,,,,,,,,,,,,,,,,,,,,,,,,,
712_62123,1,36,Female,NULL,NULL,ts-trial,15,275670,0.0-15.0,2020-06-01_blueprint_a8ac75a61d70598951af70a55c22ef89.json,NULL,NULL,NULL,NULL,270241,"[270744,271243,271744,272245,272742,273243]",273392,276098,1,2,,ts-trial-spatial-rotation,,,,,,,,,,,,,,,,,,,,,,,,,,,,,,,
712_62123,1,36,Female,NULL,NULL,ts-trial,17,282633,0.0-17.0,2020-06-01_blueprint_a8ac75a61d70598951af70a55c22ef89.json,NULL,NULL,NULL,NULL,277204,"[277705,278206,278706,279209,279705,280204]",280355,NULL,NULL,2,NULL,ts-trial-spatial-rotation,,,,,,,,,,,,,,,,,,,,,,,,,,,,,,,
712_62123,1,36,Female,NULL,NULL,ts-info-card,18,286636,0.0-18.0,2020-06-01_blueprint_a8ac75a61d70598951af70a55c22ef89.json,NULL,NULL,283360,287363,NULL,NULL,NULL,NULL,NULL,NULL,NULL,NULL,,,,,,,,,,,,,,,,,,,,,,,,,,,,,,,
712_62123,1,36,Female,NULL,NULL,ts-trial,19,292793,0.0-19.0,2020-06-01_blueprint_a8ac75a61d70598951af70a55c22ef89.json,NULL,NULL,NULL,NULL,287364,"[287865,288365,288869,289366,289866,290365]",290515,292570,2,2,1,ts-trial-spatial-span,,,,,,,,,,,,,,,,,,,,,,,,,,,,,,,
712_62123,1,36,Female,NULL,NULL,ts-trial,21,300049,0.0-21.0,2020-06-01_blueprint_a8ac75a61d70598951af70a55c22ef89.json,NULL,NULL,NULL,NULL,294619,"[295126,295627,296123,296622,297120,297622]",297777,300287,2,2,1,ts-trial-spatial-span,,,,,,,,,,,,,,,,,,,,,,,,,,,,,,,
712_62123,1,36,Female,NULL,NULL,ts-trial,23,306828,0.0-23.0,2020-06-01_blueprint_a8ac75a61d70598951af70a55c22ef89.json,NULL,NULL,NULL,NULL,301390,"[301902,302401,302903,303404,303901,304391]",304554,306767,0,0,1,ts-trial-spatial-span,,,,,,,,,,,,,,,,,,,,,,,,,,,,,,,
712_62123,1,36,Female,NULL,NULL,ts-trial,25,314025,0.0-25.0,2020-06-01_blueprint_a8ac75a61d70598951af70a55c22ef89.json,NULL,NULL,NULL,NULL,308595,"[309103,309599,310102,310599,311100,311598]",311750,313990,2,2,1,ts-trial-spatial-span,,,,,,,,,,,,,,,,,,,,,,,,,,,,,,,
712_62123,1,36,Female,NULL,NULL,ts-trial,27,320884,0.0-27.0,2020-06-01_blueprint_a8ac75a61d70598951af70a55c22ef89.json,NULL,NULL,NULL,NULL,315447,"[315954,316448,316948,317450,317948,318452]",318613,321123,2,2,1,ts-trial-spatial-span,,,,,,,,,,,,,,,,,,,,,,,,,,,,,,,
712_62123,1,36,Female,NULL,NULL,ts-trial,29,327413,0.0-29.0,2020-06-01_blueprint_a8ac75a61d70598951af70a55c22ef89.json,NULL,NULL,NULL,NULL,321978,"[322488,322982,323480,323978,324479,324981]",325140,328041,2,1,,ts-trial-spatial-span,,,,,,,,,,,,,,,,,,,,,,,,,,,,,,,
712_62123,1,36,Female,NULL,NULL,ts-trial,31,333869,0.0-31.0,2020-06-01_blueprint_a8ac75a61d70598951af70a55c22ef89.json,NULL,NULL,NULL,NULL,328438,"[328941,329440,329939,330442,330941,331440]",331594,NULL,NULL,0,NULL,ts-trial-spatial-span,,,,,,,,,,,,,,,,,,,,,,,,,,,,,,,
712_62123,1,36,Female,NULL,NULL,ts-trial,33,340210,0.0-33.0,2020-06-01_blueprint_a8ac75a61d70598951af70a55c22ef89.json,NULL,NULL,NULL,NULL,334782,"[335289,335786,336291,336785,337286,337785]",337938,340912,1,2,,ts-trial-spatial-span,,,,,,,,,,,,,,,,,,,,,,,,,,,,,,,
712_62123,1,36,Female,NULL,NULL,ts-info-card,34,344214,0.0-34.0,2020-06-01_blueprint_a8ac75a61d70598951af70a55c22ef89.json,NULL,NULL,340940,344943,NULL,NULL,NULL,NULL,NULL,NULL,NULL,NULL,,,,,,,,,,,,,,,,,,,,,,,,,,,,,,,
712_62123,1,36,Female,NULL,NULL,ts-trial,35,350377,0.0-35.0,2020-06-01_blueprint_a8ac75a61d70598951af70a55c22ef89.json,NULL,NULL,NULL,NULL,344944,"[345448,345952,346450,346947,347446,347944]",348105,NULL,NULL,0,NULL,ts-trial-spatial-rotation,,,,,,,,,,,,,,,,,,,,,,,,,,,,,,,
712_62123,1,36,Female,NULL,NULL,ts-trial,37,356865,0.0-37.0,2020-06-01_blueprint_a8ac75a61d70598951af70a55c22ef89.json,NULL,NULL,NULL,NULL,351438,"[351943,352443,352942,353446,353942,354442]",354594,356664,0,0,1,ts-trial-spatial-rotation,,,,,,,,,,,,,,,,,,,,,,,,,,,,,,,
712_62123,1,36,Female,NULL,NULL,ts-trial,39,363462,0.0-39.0,2020-06-01_blueprint_a8ac75a61d70598951af70a55c22ef89.json,NULL,NULL,NULL,NULL,358039,"[358541,359043,359544,360040,360543,361043]",361192,363762,2,2,1,ts-trial-spatial-rotation,,,,,,,,,,,,,,,,,,,,,,,,,,,,,,,
712_62123,1,36,Female,NULL,NULL,ts-trial,41,370307,0.0-41.0,2020-06-01_blueprint_a8ac75a61d70598951af70a55c22ef89.json,NULL,NULL,NULL,NULL,364880,"[365385,365882,366381,366880,367382,367883]",368036,370580,1,1,1,ts-trial-spatial-rotation,,,,,,,,,,,,,,,,,,,,,,,,,,,,,,,
712_62123,1,36,Female,NULL,NULL,ts-trial,43,377173,0.0-43.0,2020-06-01_blueprint_a8ac75a61d70598951af70a55c22ef89.json,NULL,NULL,NULL,NULL,371748,"[372252,372750,373252,373749,374249,374748]",374901,377769,2,0,,ts-trial-spatial-rotation,,,,,,,,,,,,,,,,,,,,,,,,,,,,,,,
712_62123,1,36,Female,NULL,NULL,ts-trial,45,383704,0.0-45.0,2020-06-01_blueprint_a8ac75a61d70598951af70a55c22ef89.json,NULL,NULL,NULL,NULL,378276,"[378781,379280,379781,380277,380781,381279]",381431,383743,2,0,,ts-trial-spatial-rotation,,,,,,,,,,,,,,,,,,,,,,,,,,,,,,,
712_62123,1,36,Female,NULL,NULL,ts-trial,47,390187,0.0-47.0,2020-06-01_blueprint_a8ac75a61d70598951af70a55c22ef89.json,NULL,NULL,NULL,NULL,384762,"[385269,385766,386264,386764,387263,387762]",387916,390358,1,0,,ts-trial-spatial-rotation,,,,,,,,,,,,,,,,,,,,,,,,,,,,,,,
712_62123,1,36,Female,NULL,NULL,ts-trial,49,396984,0.0-49.0,2020-06-01_blueprint_a8ac75a61d70598951af70a55c22ef89.json,NULL,NULL,NULL,NULL,391560,"[392064,392561,393061,393561,394062,394561]",394713,397626,0,0,1,ts-trial-spatial-rotation,,,,,,,,,,,,,,,,,,,,,,,,,,,,,,,
712_62123,1,36,Female,NULL,NULL,ts-info-card,50,400988,0.0-50.0,2020-06-01_blueprint_a8ac75a61d70598951af70a55c22ef89.json,NULL,NULL,397716,401719,NULL,NULL,NULL,NULL,NULL,NULL,NULL,NULL,,,,,,,,,,,,,,,,,,,,,,,,,,,,,,,
712_62123,1,36,Female,NULL,NULL,ts-trial,51,405650,0.0-51.0,2020-06-01_blueprint_a8ac75a61d70598951af70a55c22ef89.json,NULL,NULL,NULL,NULL,401720,"[401973,402221,402473,402722,402974,403222]",403380,405772,0,0,1,ts-trial-digit-span,,,,,,,,,,,,,,,,,,,,,,,,,,,,,,,
712_62123,1,36,Female,NULL,NULL,ts-trial,53,411322,0.0-53.0,2020-06-01_blueprint_a8ac75a61d70598951af70a55c22ef89.json,NULL,NULL,NULL,NULL,407401,"[407653,407904,408153,408402,408654,408902]",409053,NULL,NULL,0,NULL,ts-trial-digit-span,,,,,,,,,,,,,,,,,,,,,,,,,,,,,,,
712_62123,1,36,Female,NULL,NULL,ts-trial,55,416591,0.0-55.0,2020-06-01_blueprint_a8ac75a61d70598951af70a55c22ef89.json,NULL,NULL,NULL,NULL,412665,"[412920,413174,413424,413667,413915,414166]",414323,416652,1,2,,ts-trial-digit-span,,,,,,,,,,,,,,,,,,,,,,,,,,,,,,,
712_62123,1,36,Female,NULL,NULL,ts-trial,57,421835,0.0-57.0,2020-06-01_blueprint_a8ac75a61d70598951af70a55c22ef89.json,NULL,NULL,NULL,NULL,417913,"[418166,418415,418667,418915,419167,419414]",419565,422130,1,1,1,ts-trial-digit-span,,,,,,,,,,,,,,,,,,,,,,,,,,,,,,,
712_62123,1,36,Female,NULL,NULL,ts-trial,59,426824,0.0-59.0,2020-06-01_blueprint_a8ac75a61d70598951af70a55c22ef89.json,NULL,NULL,NULL,NULL,422902,"[423154,423405,423657,423903,424153,424403]",424555,426731,2,2,1,ts-trial-digit-span,,,,,,,,,,,,,,,,,,,,,,,,,,,,,,,
712_62123,1,36,Female,NULL,NULL,ts-trial,61,431640,0.0-61.0,2020-06-01_blueprint_a8ac75a61d70598951af70a55c22ef89.json,NULL,NULL,NULL,NULL,427717,"[427968,428219,428470,428720,428968,429219]",429370,431277,2,2,1,ts-trial-digit-span,,,,,,,,,,,,,,,,,,,,,,,,,,,,,,,
712_62123,1,36,Female,NULL,NULL,ts-trial,63,436654,0.0-63.0,2020-06-01_blueprint_a8ac75a61d70598951af70a55c22ef89.json,NULL,NULL,NULL,NULL,432732,"[432988,433235,433483,433735,433983,434233]",434384,436733,2,0,,ts-trial-digit-span,,,,,,,,,,,,,,,,,,,,,,,,,,,,,,,
712_62123,1,36,Female,NULL,NULL,ts-trial,65,441830,0.0-65.0,2020-06-01_blueprint_a8ac75a61d70598951af70a55c22ef89.json,NULL,NULL,NULL,NULL,437906,"[438157,438406,438659,438910,439156,439406]",439560,NULL,NULL,2,NULL,ts-trial-digit-span,,,,,,,,,,,,,,,,,,,,,,,,,,,,,,,
712_62123,1,36,Female,NULL,NULL,ts-info-card,66,442333,0.0-66.0,2020-06-01_blueprint_a8ac75a61d70598951af70a55c22ef89.json,NULL,NULL,442564,443066,NULL,NULL,NULL,NULL,NULL,NULL,NULL,NULL,,,,,,,,,,,,,,,,,,,,,,,,,,,,,,,
712_62123,1,36,Female,NULL,NULL,ts-trial,67,448488,0.0-67.0,2020-06-01_blueprint_a8ac75a61d70598951af70a55c22ef89.json,NULL,NULL,NULL,NULL,443067,"[443572,444070,444569,445068,445568,446070]",446219,NULL,NULL,1,NULL,ts-trial-spatial-span,,,,,,,,,,,,,,,,,,,,,,,,,,,,,,,
712_62123,1,36,Female,NULL,NULL,ts-trial,69,455280,0.0-69.0,2020-06-01_blueprint_a8ac75a61d70598951af70a55c22ef89.json,NULL,NULL,NULL,NULL,449859,"[450363,450864,451361,451862,452363,452861]",453011,NULL,NULL,0,NULL,ts-trial-spatial-span,,,,,,,,,,,,,,,,,,,,,,,,,,,,,,,
712_62123,1,36,Female,NULL,NULL,ts-trial,71,462014,0.0-71.0,2020-06-01_blueprint_a8ac75a61d70598951af70a55c22ef89.json,NULL,NULL,NULL,NULL,456592,"[457094,457594,458093,458597,459093,459595]",459744,NULL,NULL,0,NULL,ts-trial-spatial-span,,,,,,,,,,,,,,,,,,,,,,,,,,,,,,,
712_62123,1,36,Female,NULL,NULL,ts-trial,73,468282,0.0-73.0,2020-06-01_blueprint_a8ac75a61d70598951af70a55c22ef89.json,NULL,NULL,NULL,NULL,462858,"[463360,463862,464360,464863,465364,465863]",466014,NULL,NULL,2,NULL,ts-trial-spatial-span,,,,,,,,,,,,,,,,,,,,,,,,,,,,,,,
712_62123,1,36,Female,NULL,NULL,ts-trial,75,474789,0.0-75.0,2020-06-01_blueprint_a8ac75a61d70598951af70a55c22ef89.json,NULL,NULL,NULL,NULL,469365,"[469868,470368,470869,471366,471866,472370]",472521,NULL,NULL,2,NULL,ts-trial-spatial-span,,,,,,,,,,,,,,,,,,,,,,,,,,,,,,,
712_62123,1,36,Female,NULL,NULL,ts-trial,77,481133,0.0-77.0,2020-06-01_blueprint_a8ac75a61d70598951af70a55c22ef89.json,NULL,NULL,NULL,NULL,475703,"[476204,476707,477204,477706,478203,478703]",478863,NULL,NULL,1,NULL,ts-trial-spatial-span,,,,,,,,,,,,,,,,,,,,,,,,,,,,,,,
712_62123,1,36,Female,NULL,NULL,ts-trial,79,487732,0.0-79.0,2020-06-01_blueprint_a8ac75a61d70598951af70a55c22ef89.json,NULL,NULL,NULL,NULL,482315,"[482817,483316,483817,484320,484816,485316]",485467,NULL,NULL,0,NULL,ts-trial-spatial-span,,,,,,,,,,,,,,,,,,,,,,,,,,,,,,,
283.00000000000006_59779,6525710,20,Female,NULL,NULL,ts-info-card,4,58270,0.0-4.0,2020-06-08_blueprint_4a1eb7bb9ca8df26499a32ddc418f82a.json,NULL,NULL,58054,58555,NULL,NULL,NULL,NULL,NULL,NULL,NULL,NULL,,,,,,,,,,,,,,,,,,,,,,,,,,,,,,,
283.00000000000006_59779,6525710,20,Female,NULL,NULL,ts-trial,5,64432,0.0-5.0,2020-06-08_blueprint_4a1eb7bb9ca8df26499a32ddc418f82a.json,NULL,NULL,NULL,NULL,58558,"[59064,59563,60062.00000000001,60562.00000000001,61062.00000000001,61561]",61716,63924,1,1,1,ts-trial-spatial-rotation,,,,,,,,,,,,,,,,,,,,,,,,,,,,,,,
283.00000000000006_59779,6525710,20,Female,NULL,NULL,ts-trial,7,71521,0.0-7.0,2020-06-08_blueprint_4a1eb7bb9ca8df26499a32ddc418f82a.json,NULL,NULL,NULL,NULL,65643,"[66150,66649,67148,67649,68149,68648]",68802,NULL,NULL,2,NULL,ts-trial-spatial-rotation,,,,,,,,,,,,,,,,,,,,,,,,,,,,,,,
283.00000000000006_59779,6525710,20,Female,NULL,NULL,ts-trial,9,77794,0.0-9.0,2020-06-08_blueprint_4a1eb7bb9ca8df26499a32ddc418f82a.json,NULL,NULL,NULL,NULL,71914,"[72420,72919,73418,73918,74418,74917]",75073,76519,2,0,,ts-trial-spatial-rotation,,,,,,,,,,,,,,,,,,,,,,,,,,,,,,,
283.00000000000006_59779,6525710,20,Female,NULL,NULL,ts-trial,11,84753,0.0-11.0,2020-06-08_blueprint_4a1eb7bb9ca8df26499a32ddc418f82a.json,NULL,NULL,NULL,NULL,78874,"[79380,79880,80379,80879,81378,81877]",82031,84114,0,2,,ts-trial-spatial-rotation,,,,,,,,,,,,,,,,,,,,,,,,,,,,,,,
283.00000000000006_59779,6525710,20,Female,NULL,NULL,ts-trial,13,91103,0.0-13.0,2020-06-08_blueprint_4a1eb7bb9ca8df26499a32ddc418f82a.json,NULL,NULL,NULL,NULL,85224,"[85728.00000000001,86228.00000000001,86728.00000000001,87227,87726,88226]",88381,91050,2,1,,ts-trial-spatial-rotation,,,,,,,,,,,,,,,,,,,,,,,,,,,,,,,
283.00000000000006_59779,6525710,20,Female,NULL,NULL,ts-trial,15,97411,0.0-15.0,2020-06-08_blueprint_4a1eb7bb9ca8df26499a32ddc418f82a.json,NULL,NULL,NULL,NULL,91531,"[92036,92536,93035,93535,94034,94533]",94688,96368,0,0,1,ts-trial-spatial-rotation,,,,,,,,,,,,,,,,,,,,,,,,,,,,,,,
283.00000000000006_59779,6525710,20,Female,NULL,NULL,ts-info-card,16,97914,0.0-16.0,2020-06-08_blueprint_4a1eb7bb9ca8df26499a32ddc418f82a.json,NULL,NULL,97691,98193,NULL,NULL,NULL,NULL,NULL,NULL,NULL,NULL,,,,,,,,,,,,,,,,,,,,,,,,,,,,,,,
283.00000000000006_59779,6525710,20,Female,NULL,NULL,ts-trial,17,102573,0.0-17.0,2020-06-08_blueprint_4a1eb7bb9ca8df26499a32ddc418f82a.json,NULL,NULL,NULL,NULL,98195,"[98449,98699,98948.00000000001,99198.00000000001,99447,99697]",99850,101306,2,2,1,ts-trial-digit-span,,,,,,,,,,,,,,,,,,,,,,,,,,,,,,,
283.00000000000006_59779,6525710,20,Female,NULL,NULL,ts-trial,19,107763,0.0-19.0,2020-06-08_blueprint_4a1eb7bb9ca8df26499a32ddc418f82a.json,NULL,NULL,NULL,NULL,103382,"[103638,103887,104136,104386,104635,104885]",105040,106473,0,0,1,ts-trial-digit-span,,,,,,,,,,,,,,,,,,,,,,,,,,,,,,,
283.00000000000006_59779,6525710,20,Female,NULL,NULL,ts-trial,21,113006,0.0-21.0,2020-06-08_blueprint_4a1eb7bb9ca8df26499a32ddc418f82a.json,NULL,NULL,NULL,NULL,108627,"[108880,109130,109379,109629,109878,110129]",110283,111900,0,0,1,ts-trial-digit-span,,,,,,,,,,,,,,,,,,,,,,,,,,,,,,,
283.00000000000006_59779,6525710,20,Female,NULL,NULL,ts-trial,23,117886,0.0-23.0,2020-06-08_blueprint_4a1eb7bb9ca8df26499a32ddc418f82a.json,NULL,NULL,NULL,NULL,113506,"[113760,114010,114260,114508,114758,115009]",115162,117332,2,2,1,ts-trial-digit-span,,,,,,,,,,,,,,,,,,,,,,,,,,,,,,,
283.00000000000006_59779,6525710,20,Female,NULL,NULL,ts-trial,25,123313,0.0-25.0,2020-06-08_blueprint_4a1eb7bb9ca8df26499a32ddc418f82a.json,NULL,NULL,NULL,NULL,118931,"[119186,119436,119685,119935,120184,120433]",120588,123201,1,1,1,ts-trial-digit-span,,,,,,,,,,,,,,,,,,,,,,,,,,,,,,,
283.00000000000006_59779,6525710,20,Female,NULL,NULL,ts-trial,27,128619,0.0-27.0,2020-06-08_blueprint_4a1eb7bb9ca8df26499a32ddc418f82a.json,NULL,NULL,NULL,NULL,124238,"[124493.00000000001,124742,124992,125241,125490.00000000001,125740.00000000001]",125894,128703,2,2,1,ts-trial-digit-span,,,,,,,,,,,,,,,,,,,,,,,,,,,,,,,
283.00000000000006_59779,6525710,20,Female,NULL,NULL,ts-trial,29,133567,0.0-29.0,2020-06-08_blueprint_4a1eb7bb9ca8df26499a32ddc418f82a.json,NULL,NULL,NULL,NULL,129185,"[129440,129689,129939,130188.00000000001,130438.00000000001,130688.00000000001]",130842,132800,2,2,1,ts-trial-digit-span,,,,,,,,,,,,,,,,,,,,,,,,,,,,,,,
283.00000000000006_59779,6525710,20,Female,NULL,NULL,ts-info-card,30,137569,0.0-30.0,2020-06-08_blueprint_4a1eb7bb9ca8df26499a32ddc418f82a.json,NULL,NULL,133846,137847,NULL,NULL,NULL,NULL,NULL,NULL,NULL,NULL,,,,,,,,,,,,,,,,,,,,,,,,,,,,,,,
283.00000000000006_59779,6525710,20,Female,NULL,NULL,ts-trial,31,143731,0.0-31.0,2020-06-08_blueprint_4a1eb7bb9ca8df26499a32ddc418f82a.json,NULL,NULL,NULL,NULL,137848,"[138354,138853,139353,139852,140351,140851]",141006,142800,2,2,1,ts-trial-spatial-rotation,,,,,,,,,,,,,,,,,,,,,,,,,,,,,,,
283.00000000000006_59779,6525710,20,Female,NULL,NULL,ts-trial,33,150309,0.0-33.0,2020-06-08_blueprint_4a1eb7bb9ca8df26499a32ddc418f82a.json,NULL,NULL,NULL,NULL,144427,"[144932.00000000003,145431,145931,146430,146929,147428]",147584,149923,0,0,1,ts-trial-spatial-rotation,,,,,,,,,,,,,,,,,,,,,,,,,,,,,,,
283.00000000000006_59779,6525710,20,Female,NULL,NULL,ts-trial,35,157058,0.0-35.0,2020-06-08_blueprint_4a1eb7bb9ca8df26499a32ddc418f82a.json,NULL,NULL,NULL,NULL,151175,"[151681,152180,152680,153179,153678,154177]",154333,157176,2,2,1,ts-trial-spatial-rotation,,,,,,,,,,,,,,,,,,,,,,,,,,,,,,,
283.00000000000006_59779,6525710,20,Female,NULL,NULL,ts-trial,37,164004,0.0-37.0,2020-06-08_blueprint_4a1eb7bb9ca8df26499a32ddc418f82a.json,NULL,NULL,NULL,NULL,158122,"[158627,159125,159626,160125,160624,161124]",161278,164141,2,1,,ts-trial-spatial-rotation,,,,,,,,,,,,,,,,,,,,,,,,,,,,,,,
283.00000000000006_59779,6525710,20,Female,NULL,NULL,ts-trial,39,170406,0.0-39.0,2020-06-08_blueprint_4a1eb7bb9ca8df26499a32ddc418f82a.json,NULL,NULL,NULL,NULL,164523,"[165029,165528,166028,166526,167026,167525]",167680,170239,1,1,1,ts-trial-spatial-rotation,,,,,,,,,,,,,,,,,,,,,,,,,,,,,,,
283.00000000000006_59779,6525710,20,Female,NULL,NULL,ts-trial,41,177480,0.0-41.0,2020-06-08_blueprint_4a1eb7bb9ca8df26499a32ddc418f82a.json,NULL,NULL,NULL,NULL,171596,"[172101,172601,173101,173600,174100,174599]",174753,NULL,NULL,0,NULL,ts-trial-spatial-rotation,,,,,,,,,,,,,,,,,,,,,,,,,,,,,,,
283.00000000000006_59779,6525710,20,Female,NULL,NULL,ts-trial,43,184314,0.0-43.0,2020-06-08_blueprint_4a1eb7bb9ca8df26499a32ddc418f82a.json,NULL,NULL,NULL,NULL,178430,"[178935,179435,179934,180434,180933,181432.00000000003]",181587,182754,1,1,1,ts-trial-spatial-rotation,,,,,,,,,,,,,,,,,,,,,,,,,,,,,,,
283.00000000000006_59779,6525710,20,Female,NULL,NULL,ts-trial,45,191235,0.0-45.0,2020-06-08_blueprint_4a1eb7bb9ca8df26499a32ddc418f82a.json,NULL,NULL,NULL,NULL,185352,"[185857,186357,186856,187355,187854,188353]",188508,189544,0,2,,ts-trial-spatial-rotation,,,,,,,,,,,,,,,,,,,,,,,,,,,,,,,
283.00000000000006_59779,6525710,20,Female,NULL,NULL,ts-trial,47,198292,0.0-47.0,2020-06-08_blueprint_4a1eb7bb9ca8df26499a32ddc418f82a.json,NULL,NULL,NULL,NULL,192408,"[192914.00000000003,193413,193913,194412,194911,195410]",195566,196763,2,1,,ts-trial-spatial-rotation,,,,,,,,,,,,,,,,,,,,,,,,,,,,,,,
283.00000000000006_59779,6525710,20,Female,NULL,NULL,ts-info-card,48,202295,0.0-48.0,2020-06-08_blueprint_4a1eb7bb9ca8df26499a32ddc418f82a.json,NULL,NULL,198569,202570,NULL,NULL,NULL,NULL,NULL,NULL,NULL,NULL,,,,,,,,,,,,,,,,,,,,,,,,,,,,,,,
283.00000000000006_59779,6525710,20,Female,NULL,NULL,ts-trial,49,206958,0.0-49.0,2020-06-08_blueprint_4a1eb7bb9ca8df26499a32ddc418f82a.json,NULL,NULL,NULL,NULL,202572,"[202829,203078,203327,203576,203827,204076]",204231,207141,2,1,,ts-trial-digit-span,,,,,,,,,,,,,,,,,,,,,,,,,,,,,,,
283.00000000000006_59779,6525710,20,Female,NULL,NULL,ts-trial,51,212519,0.0-51.0,2020-06-08_blueprint_4a1eb7bb9ca8df26499a32ddc418f82a.json,NULL,NULL,NULL,NULL,208135,"[208390.00000000003,208640.00000000003,208889,209139,209388,209637]",209792,211873,1,0,,ts-trial-digit-span,,,,,,,,,,,,,,,,,,,,,,,,,,,,,,,
283.00000000000006_59779,6525710,20,Female,NULL,NULL,ts-trial,53,217586,0.0-53.0,2020-06-08_blueprint_4a1eb7bb9ca8df26499a32ddc418f82a.json,NULL,NULL,NULL,NULL,213203,"[213458,213707,213957,214206.00000000003,214455,214705]",214859,217011,2,0,,ts-trial-digit-span,,,,,,,,,,,,,,,,,,,,,,,,,,,,,,,
283.00000000000006_59779,6525710,20,Female,NULL,NULL,ts-trial,55,222777,0.0-55.0,2020-06-08_blueprint_4a1eb7bb9ca8df26499a32ddc418f82a.json,NULL,NULL,NULL,NULL,218392,"[218647,218897,219146.00000000003,219396.00000000003,219645,219894]",220049,222423,0,0,1,ts-trial-digit-span,,,,,,,,,,,,,,,,,,,,,,,,,,,,,,,
283.00000000000006_59779,6525710,20,Female,NULL,NULL,ts-trial,57,228519,0.0-57.0,2020-06-08_blueprint_4a1eb7bb9ca8df26499a32ddc418f82a.json,NULL,NULL,NULL,NULL,224134,"[224389,224639,224888,225138,225387,225635]",225791,227132,0,0,1,ts-trial-digit-span,,,,,,,,,,,,,,,,,,,,,,,,,,,,,,,
283.00000000000006_59779,6525710,20,Female,NULL,NULL,ts-trial,59,234035,0.0-59.0,2020-06-08_blueprint_4a1eb7bb9ca8df26499a32ddc418f82a.json,NULL,NULL,NULL,NULL,229650,"[229904,230155,230403,230654,230903,231152.00000000003]",231307,233183,0,0,1,ts-trial-digit-span,,,,,,,,,,,,,,,,,,,,,,,,,,,,,,,
283.00000000000006_59779,6525710,20,Female,NULL,NULL,ts-info-card,60,234538,0.0-60.0,2020-06-08_blueprint_4a1eb7bb9ca8df26499a32ddc418f82a.json,NULL,NULL,234311,234813,NULL,NULL,NULL,NULL,NULL,NULL,NULL,NULL,,,,,,,,,,,,,,,,,,,,,,,,,,,,,,,
283.00000000000006_59779,6525710,20,Female,NULL,NULL,ts-trial,61,240698,0.0-61.0,2020-06-08_blueprint_4a1eb7bb9ca8df26499a32ddc418f82a.json,NULL,NULL,NULL,NULL,234814,"[235319.00000000003,235818,236318,236818,237317,237817]",237971,240466,2,0,,ts-trial-spatial-span,,,,,,,,,,,,,,,,,,,,,,,,,,,,,,,
283.00000000000006_59779,6525710,20,Female,NULL,NULL,ts-trial,63,247334,0.0-63.0,2020-06-08_blueprint_4a1eb7bb9ca8df26499a32ddc418f82a.json,NULL,NULL,NULL,NULL,241448,"[241953,242452,242951,243451,243951,244450.00000000003]",244606,246001,2,2,1,ts-trial-spatial-span,,,,,,,,,,,,,,,,,,,,,,,,,,,,,,,
283.00000000000006_59779,6525710,20,Female,NULL,NULL,ts-trial,65,254165,0.0-65.0,2020-06-08_blueprint_4a1eb7bb9ca8df26499a32ddc418f82a.json,NULL,NULL,NULL,NULL,248280,"[248785,249285,249784,250284,250783.00000000003,251282]",251438,253431,2,2,1,ts-trial-spatial-span,,,,,,,,,,,,,,,,,,,,,,,,,,,,,,,
283.00000000000006_59779,6525710,20,Female,NULL,NULL,ts-trial,67,261321,0.0-67.0,2020-06-08_blueprint_4a1eb7bb9ca8df26499a32ddc418f82a.json,NULL,NULL,NULL,NULL,255436,"[255942,256441.00000000003,256941.00000000003,257440,257939.00000000003,258439.00000000003]",258592,260006,2,0,,ts-trial-spatial-span,,,,,,,,,,,,,,,,,,,,,,,,,,,,,,,
283.00000000000006_59779,6525710,20,Female,NULL,NULL,ts-trial,69,267943,0.0-69.0,2020-06-08_blueprint_4a1eb7bb9ca8df26499a32ddc418f82a.json,NULL,NULL,NULL,NULL,262055,"[262562,263061,263560,264059,264559,265058]",265214,266993,1,1,1,ts-trial-spatial-span,,,,,,,,,,,,,,,,,,,,,,,,,,,,,,,
283.00000000000006_59779,6525710,20,Female,NULL,NULL,ts-trial,71,274807,0.0-71.0,2020-06-08_blueprint_4a1eb7bb9ca8df26499a32ddc418f82a.json,NULL,NULL,NULL,NULL,268921,"[269426,269925,270425,270924,271424,271923]",272077,274298,1,0,,ts-trial-spatial-span,,,,,,,,,,,,,,,,,,,,,,,,,,,,,,,
283.00000000000006_59779,6525710,20,Female,NULL,NULL,ts-trial,73,281352,0.0-73.0,2020-06-08_blueprint_4a1eb7bb9ca8df26499a32ddc418f82a.json,NULL,NULL,NULL,NULL,275466,"[275971,276470,276970,277468,277969,278468]",278623,280784,1,1,1,ts-trial-spatial-span,,,,,,,,,,,,,,,,,,,,,,,,,,,,,,,
283.00000000000006_59779,6525710,20,Female,NULL,NULL,ts-trial,75,288394,0.0-75.0,2020-06-08_blueprint_4a1eb7bb9ca8df26499a32ddc418f82a.json,NULL,NULL,NULL,NULL,282508,"[283013.00000000006,283512,284012,284511,285010,285510]",285665,287189,1,2,,ts-trial-spatial-span,,,,,,,,,,,,,,,,,,,,,,,,,,,,,,,
283.00000000000006_59779,6525710,20,Female,NULL,NULL,ts-info-card,76,292398,0.0-76.0,2020-06-08_blueprint_4a1eb7bb9ca8df26499a32ddc418f82a.json,NULL,NULL,288669,292670,NULL,NULL,NULL,NULL,NULL,NULL,NULL,NULL,,,,,,,,,,,,,,,,,,,,,,,,,,,,,,,
283.00000000000006_59779,6525710,20,Female,NULL,NULL,ts-trial,77,297059,0.0-77.0,2020-06-08_blueprint_4a1eb7bb9ca8df26499a32ddc418f82a.json,NULL,NULL,NULL,NULL,292672,"[292927,293177,293426,293676,293925,294174]",294329,296742,0,1,,ts-trial-digit-span,,,,,,,,,,,,,,,,,,,,,,,,,,,,,,,
283.00000000000006_59779,6525710,20,Female,NULL,NULL,ts-trial,79,302039,0.0-79.0,2020-06-08_blueprint_4a1eb7bb9ca8df26499a32ddc418f82a.json,NULL,NULL,NULL,NULL,297651,"[297907,298156,298406,298655.00000000006,298904,299153]",299309,301040,2,2,1,ts-trial-digit-span,,,,,,,,,,,,,,,,,,,,,,,,,,,,,,,
283.00000000000006_59779,6525710,20,Female,NULL,NULL,ts-trial,81,307341,0.0-81.0,2020-06-08_blueprint_4a1eb7bb9ca8df26499a32ddc418f82a.json,NULL,NULL,NULL,NULL,302954,"[303209,303458,303707,303957,304205,304455]",304611,305933,2,0,,ts-trial-digit-span,,,,,,,,,,,,,,,,,,,,,,,,,,,,,,,
283.00000000000006_59779,6525710,20,Female,NULL,NULL,ts-trial,83,312343,0.0-83.0,2020-06-08_blueprint_4a1eb7bb9ca8df26499a32ddc418f82a.json,NULL,NULL,NULL,NULL,307955,"[308210,308460,308709,308959,309208,309457]",309612,312033,0,0,1,ts-trial-digit-span,,,,,,,,,,,,,,,,,,,,,,,,,,,,,,,
283.00000000000006_59779,6525710,20,Female,NULL,NULL,ts-trial,85,317575,0.0-85.0,2020-06-08_blueprint_4a1eb7bb9ca8df26499a32ddc418f82a.json,NULL,NULL,NULL,NULL,313188,"[313442,313691.00000000006,313942,314191.00000000006,314440,314690]",314845,317049,1,2,,ts-trial-digit-span,,,,,,,,,,,,,,,,,,,,,,,,,,,,,,,
283.00000000000006_59779,6525710,20,Female,NULL,NULL,ts-trial,87,323160,0.0-87.0,2020-06-08_blueprint_4a1eb7bb9ca8df26499a32ddc418f82a.json,NULL,NULL,NULL,NULL,318772,"[319027,319277,319526,319776,320024,320274]",320429,322305,1,1,1,ts-trial-digit-span,,,,,,,,,,,,,,,,,,,,,,,,,,,,,,,
283.00000000000006_59779,6525710,20,Female,NULL,NULL,ts-trial,89,328498,0.0-89.0,2020-06-08_blueprint_4a1eb7bb9ca8df26499a32ddc418f82a.json,NULL,NULL,NULL,NULL,324110,"[324366,324616,324865,325115,325364.00000000006,325612]",325768,327123,2,1,,ts-trial-digit-span,,,,,,,,,,,,,,,,,,,,,,,,,,,,,,,
283.00000000000006_59779,6525710,20,Female,NULL,NULL,ts-info-card,90,332501,0.0-90.0,2020-06-08_blueprint_4a1eb7bb9ca8df26499a32ddc418f82a.json,NULL,NULL,328771,332773,NULL,NULL,NULL,NULL,NULL,NULL,NULL,NULL,,,,,,,,,,,,,,,,,,,,,,,,,,,,,,,
283.00000000000006_59779,6525710,20,Female,NULL,NULL,ts-trial,91,338662,0.0-91.0,2020-06-08_blueprint_4a1eb7bb9ca8df26499a32ddc418f82a.json,NULL,NULL,NULL,NULL,332774,"[333279,333779,334278,334778,335277,335777]",335931,337876,0,1,,ts-trial-spatial-rotation,,,,,,,,,,,,,,,,,,,,,,,,,,,,,,,
283.00000000000006_59779,6525710,20,Female,NULL,NULL,ts-trial,93,345462,0.0-93.0,2020-06-08_blueprint_4a1eb7bb9ca8df26499a32ddc418f82a.json,NULL,NULL,NULL,NULL,339571,"[340078.00000000006,340578.00000000006,341078.00000000006,341578.00000000006,342077,342576]",342731,345142,2,1,,ts-trial-spatial-rotation,,,,,,,,,,,,,,,,,,,,,,,,,,,,,,,
283.00000000000006_59779,6525710,20,Female,NULL,NULL,ts-trial,95,352656,0.0-95.0,2020-06-08_blueprint_4a1eb7bb9ca8df26499a32ddc418f82a.json,NULL,NULL,NULL,NULL,346767,"[347272,347772,348272,348771,349269,349770]",349925,351559,0,0,1,ts-trial-spatial-rotation,,,,,,,,,,,,,,,,,,,,,,,,,,,,,,,
283.00000000000006_59779,6525710,20,Female,NULL,NULL,ts-trial,97,359440,0.0-97.0,2020-06-08_blueprint_4a1eb7bb9ca8df26499a32ddc418f82a.json,NULL,NULL,NULL,NULL,353551,"[354057,354556,355055,355555,356054.00000000006,356554.00000000006]",356708,358383,1,1,1,ts-trial-spatial-rotation,,,,,,,,,,,,,,,,,,,,,,,,,,,,,,,
283.00000000000006_59779,6525710,20,Female,NULL,NULL,ts-trial,99,366080,0.0-99.0,2020-06-08_blueprint_4a1eb7bb9ca8df26499a32ddc418f82a.json,NULL,NULL,NULL,NULL,360194,"[360699,361198.00000000006,361697,362198.00000000006,362697,363196]",363350,364302,2,0,,ts-trial-spatial-rotation,,,,,,,,,,,,,,,,,,,,,,,,,,,,,,,
283.00000000000006_59779,6525710,20,Female,NULL,NULL,ts-trial,101,372584,0.0-101.0,2020-06-08_blueprint_4a1eb7bb9ca8df26499a32ddc418f82a.json,NULL,NULL,NULL,NULL,366695,"[367200,367700,368199,368699,369198.00000000006,369697]",369852,370766,0,1,,ts-trial-spatial-rotation,,,,,,,,,,,,,,,,,,,,,,,,,,,,,,,
283.00000000000006_59779,6525710,20,Female,NULL,NULL,ts-trial,103,379276,0.0-103.0,2020-06-08_blueprint_4a1eb7bb9ca8df26499a32ddc418f82a.json,NULL,NULL,NULL,NULL,373387,"[373893,374392,374892,375391,375890,376390]",376544,377833,2,1,,ts-trial-spatial-rotation,,,,,,,,,,,,,,,,,,,,,,,,,,,,,,,
283.00000000000006_59779,6525710,20,Female,NULL,NULL,ts-trial,105,386509,0.0-105.0,2020-06-08_blueprint_4a1eb7bb9ca8df26499a32ddc418f82a.json,NULL,NULL,NULL,NULL,380620,"[381124,381625,382124,382623,383123,383622]",383776,385016,0,1,,ts-trial-spatial-rotation,,,,,,,,,,,,,,,,,,,,,,,,,,,,,,,
283.00000000000006_59779,6525710,20,Female,NULL,NULL,ts-trial,107,393746,0.0-107.0,2020-06-08_blueprint_4a1eb7bb9ca8df26499a32ddc418f82a.json,NULL,NULL,NULL,NULL,387857,"[388362,388861,389361,389860,390359,390859]",391013,392520,2,0,,ts-trial-spatial-rotation,,,,,,,,,,,,,,,,,,,,,,,,,,,,,,,
283.00000000000006_59779,6525710,20,Female,NULL,NULL,ts-info-card,108,394249,0.0-108.0,2020-06-08_blueprint_4a1eb7bb9ca8df26499a32ddc418f82a.json,NULL,NULL,394017,394519,NULL,NULL,NULL,NULL,NULL,NULL,NULL,NULL,,,,,,,,,,,,,,,,,,,,,,,,,,,,,,,
283.00000000000006_59779,6525710,20,Female,NULL,NULL,ts-trial,109,398911,0.0-109.0,2020-06-08_blueprint_4a1eb7bb9ca8df26499a32ddc418f82a.json,NULL,NULL,NULL,NULL,394520,"[394775.00000000006,395025.00000000006,395275.00000000006,395525.00000000006,395774,396023]",396178,396862,2,2,1,ts-trial-digit-span,,,,,,,,,,,,,,,,,,,,,,,,,,,,,,,
283.00000000000006_59779,6525710,20,Female,NULL,NULL,ts-trial,111,403692,0.0-111.0,2020-06-08_blueprint_4a1eb7bb9ca8df26499a32ddc418f82a.json,NULL,NULL,NULL,NULL,399302,"[399557,399806,400056,400305,400555,400805]",400959,403154,2,0,,ts-trial-digit-span,,,,,,,,,,,,,,,,,,,,,,,,,,,,,,,
283.00000000000006_59779,6525710,20,Female,NULL,NULL,ts-trial,113,408631,0.0-113.0,2020-06-08_blueprint_4a1eb7bb9ca8df26499a32ddc418f82a.json,NULL,NULL,NULL,NULL,404241,"[404496,404745,404995,405243,405493,405743]",405898,407419,1,1,1,ts-trial-digit-span,,,,,,,,,,,,,,,,,,,,,,,,,,,,,,,
283.00000000000006_59779,6525710,20,Female,NULL,NULL,ts-trial,115,413798,0.0-115.0,2020-06-08_blueprint_4a1eb7bb9ca8df26499a32ddc418f82a.json,NULL,NULL,NULL,NULL,409408,"[409663,409911,410162.00000000006,410412.00000000006,410661,410910]",411064,413537,0,0,1,ts-trial-digit-span,,,,,,,,,,,,,,,,,,,,,,,,,,,,,,,
283.00000000000006_59779,6525710,20,Female,NULL,NULL,ts-trial,117,419491,0.0-117.0,2020-06-08_blueprint_4a1eb7bb9ca8df26499a32ddc418f82a.json,NULL,NULL,NULL,NULL,415101,"[415357,415606,415855,416105,416354,416603]",416758,418302,2,1,,ts-trial-digit-span,,,,,,,,,,,,,,,,,,,,,,,,,,,,,,,
283.00000000000006_59779,6525710,20,Female,NULL,NULL,ts-trial,119,424921,0.0-119.0,2020-06-08_blueprint_4a1eb7bb9ca8df26499a32ddc418f82a.json,NULL,NULL,NULL,NULL,420531,"[420786,421036,421285,421535,421784,422033]",422188,423989,1,1,1,ts-trial-digit-span,,,,,,,,,,,,,,,,,,,,,,,,,,,,,,,
283.00000000000006_59779,6525710,20,Female,NULL,NULL,ts-info-card,120,428924,0.0-120.0,2020-06-08_blueprint_4a1eb7bb9ca8df26499a32ddc418f82a.json,NULL,NULL,425191,429193,NULL,NULL,NULL,NULL,NULL,NULL,NULL,NULL,,,,,,,,,,,,,,,,,,,,,,,,,,,,,,,
283.00000000000006_59779,6525710,20,Female,NULL,NULL,ts-trial,121,435088,0.0-121.0,2020-06-08_blueprint_4a1eb7bb9ca8df26499a32ddc418f82a.json,NULL,NULL,NULL,NULL,429195,"[429701,430201,430700,431200,431699,432198.00000000006]",432354,434371,2,1,,ts-trial-spatial-span,,,,,,,,,,,,,,,,,,,,,,,,,,,,,,,
283.00000000000006_59779,6525710,20,Female,NULL,NULL,ts-trial,123,441370,0.0-123.0,2020-06-08_blueprint_4a1eb7bb9ca8df26499a32ddc418f82a.json,NULL,NULL,NULL,NULL,435479,"[435984.00000000006,436484.00000000006,436983,437483,437982,438481]",438636,440260,1,2,,ts-trial-spatial-span,,,,,,,,,,,,,,,,,,,,,,,,,,,,,,,
283.00000000000006_59779,6525710,20,Female,NULL,NULL,ts-trial,125,448500,0.0-125.0,2020-06-08_blueprint_4a1eb7bb9ca8df26499a32ddc418f82a.json,NULL,NULL,NULL,NULL,442609,"[443114.00000000006,443614.00000000006,444113,444613,445112,445611]",445766,447197,0,1,,ts-trial-spatial-span,,,,,,,,,,,,,,,,,,,,,,,,,,,,,,,
283.00000000000006_59779,6525710,20,Female,NULL,NULL,ts-trial,127,455252,0.0-127.0,2020-06-08_blueprint_4a1eb7bb9ca8df26499a32ddc418f82a.json,NULL,NULL,NULL,NULL,449361,"[449866,450364.00000000006,450865,451363,451863,452363]",452518,453788,0,2,,ts-trial-spatial-span,,,,,,,,,,,,,,,,,,,,,,,,,,,,,,,
283.00000000000006_59779,6525710,20,Female,NULL,NULL,ts-trial,129,461912,0.0-129.0,2020-06-08_blueprint_4a1eb7bb9ca8df26499a32ddc418f82a.json,NULL,NULL,NULL,NULL,456020,"[456525.00000000006,457024,457524,458022,458523,459022]",459177,461309,0,2,,ts-trial-spatial-span,,,,,,,,,,,,,,,,,,,,,,,,,,,,,,,
283.00000000000006_59779,6525710,20,Female,NULL,NULL,ts-trial,131,468937,0.0-131.0,2020-06-08_blueprint_4a1eb7bb9ca8df26499a32ddc418f82a.json,NULL,NULL,NULL,NULL,463045,"[463550,464050,464549.00000000006,465049.00000000006,465547,466047]",466202,467459,2,1,,ts-trial-spatial-span,,,,,,,,,,,,,,,,,,,,,,,,,,,,,,,
283.00000000000006_59779,6525710,20,Female,NULL,NULL,ts-trial,133,475603,0.0-133.0,2020-06-08_blueprint_4a1eb7bb9ca8df26499a32ddc418f82a.json,NULL,NULL,NULL,NULL,469711,"[470217,470716,471216,471715.00000000006,472214,472713]",472869,474190,0,0,1,ts-trial-spatial-span,,,,,,,,,,,,,,,,,,,,,,,,,,,,,,,
283.00000000000006_59779,6525710,20,Female,NULL,NULL,ts-trial,135,482105,0.0-135.0,2020-06-08_blueprint_4a1eb7bb9ca8df26499a32ddc418f82a.json,NULL,NULL,NULL,NULL,476214,"[476719,477217,477718,478216,478716,479216]",479371,480400,0,0,1,ts-trial-spatial-span,,,,,,,,,,,,,,,,,,,,,,,,,,,,,,,
283.00000000000006_59779,6525710,20,Female,NULL,NULL,ts-info-card,136,482608,0.0-136.0,2020-06-08_blueprint_4a1eb7bb9ca8df26499a32ddc418f82a.json,NULL,NULL,482374,482875,NULL,NULL,NULL,NULL,NULL,NULL,NULL,NULL,,,,,,,,,,,,,,,,,,,,,,,,,,,,,,,
283.00000000000006_59779,6525710,20,Female,NULL,NULL,ts-trial,137,488769,0.0-137.0,2020-06-08_blueprint_4a1eb7bb9ca8df26499a32ddc418f82a.json,NULL,NULL,NULL,NULL,482877,"[483381,483882,484381,484881,485379,485878]",486034,486448,1,1,1,ts-trial-spatial-rotation,,,,,,,,,,,,,,,,,,,,,,,,,,,,,,,
283.00000000000006_59779,6525710,20,Female,NULL,NULL,ts-trial,139,495872,0.0-139.0,2020-06-08_blueprint_4a1eb7bb9ca8df26499a32ddc418f82a.json,NULL,NULL,NULL,NULL,489979,"[490484.00000000006,490983,491483,491983,492481,492981]",493136,493913,2,1,,ts-trial-spatial-rotation,,,,,,,,,,,,,,,,,,,,,,,,,,,,,,,
283.00000000000006_59779,6525710,20,Female,NULL,NULL,ts-trial,141,502813,0.0-141.0,2020-06-08_blueprint_4a1eb7bb9ca8df26499a32ddc418f82a.json,NULL,NULL,NULL,NULL,496921,"[497426,497925,498425,498924.00000000006,499423,499923]",500077,501067,0,2,,ts-trial-spatial-rotation,,,,,,,,,,,,,,,,,,,,,,,,,,,,,,,
283.00000000000006_59779,6525710,20,Female,NULL,NULL,ts-trial,143,509214,0.0-143.0,2020-06-08_blueprint_4a1eb7bb9ca8df26499a32ddc418f82a.json,NULL,NULL,NULL,NULL,503321,"[503826,504325,504825,505324,505823.00000000006,506323.00000000006]",506478,507710,1,1,1,ts-trial-spatial-rotation,,,,,,,,,,,,,,,,,,,,,,,,,,,,,,,
283.00000000000006_59779,6525710,20,Female,NULL,NULL,ts-trial,145,515650,0.0-145.0,2020-06-08_blueprint_4a1eb7bb9ca8df26499a32ddc418f82a.json,NULL,NULL,NULL,NULL,509758,"[510263.00000000006,510763.00000000006,511262,511761,512260.99999999994,512760]",512914,514933,0,2,,ts-trial-spatial-rotation,,,,,,,,,,,,,,,,,,,,,,,,,,,,,,,
283.00000000000006_59779,6525710,20,Female,NULL,NULL,ts-trial,147,522292,0.0-147.0,2020-06-08_blueprint_4a1eb7bb9ca8df26499a32ddc418f82a.json,NULL,NULL,NULL,NULL,516400,"[516903,517403,517903,518402.00000000006,518902.00000000006,519402.00000000006]",519555,520877,1,2,,ts-trial-spatial-rotation,,,,,,,,,,,,,,,,,,,,,,,,,,,,,,,
283.00000000000006_59779,6525710,20,Female,NULL,NULL,ts-trial,149,528718,0.0-149.0,2020-06-08_blueprint_4a1eb7bb9ca8df26499a32ddc418f82a.json,NULL,NULL,NULL,NULL,522824,"[523329.00000000006,523828,524328,524826,525326,525825]",525981,527732,0,0,1,ts-trial-spatial-rotation,,,,,,,,,,,,,,,,,,,,,,,,,,,,,,,
283.00000000000006_59779,6525710,20,Female,NULL,NULL,ts-trial,151,535124,0.0-151.0,2020-06-08_blueprint_4a1eb7bb9ca8df26499a32ddc418f82a.json,NULL,NULL,NULL,NULL,529232,"[529735,530234,530734,531234,531734,532233.0000000001]",532387,534029,0,0,1,ts-trial-spatial-rotation,,,,,,,,,,,,,,,,,,,,,,,,,,,,,,,
283.00000000000006_59779,6525710,20,Female,NULL,NULL,ts-info-card,152,539127,0.0-152.0,2020-06-08_blueprint_4a1eb7bb9ca8df26499a32ddc418f82a.json,NULL,NULL,535390,539392,NULL,NULL,NULL,NULL,NULL,NULL,NULL,NULL,,,,,,,,,,,,,,,,,,,,,,,,,,,,,,,
283.00000000000006_59779,6525710,20,Female,NULL,NULL,ts-trial,153,545288,0.0-153.0,2020-06-08_blueprint_4a1eb7bb9ca8df26499a32ddc418f82a.json,NULL,NULL,NULL,NULL,539394,"[539899,540399,540898,541398,541897,542396]",542551,544095,0,2,,ts-trial-spatial-span,,,,,,,,,,,,,,,,,,,,,,,,,,,,,,,
283.00000000000006_59779,6525710,20,Female,NULL,NULL,ts-trial,155,552049,0.0-155.0,2020-06-08_blueprint_4a1eb7bb9ca8df26499a32ddc418f82a.json,NULL,NULL,NULL,NULL,546155,"[546661,547160,547659,548159,548658,549158]",549312,550879,0,0,1,ts-trial-spatial-span,,,,,,,,,,,,,,,,,,,,,,,,,,,,,,,
283.00000000000006_59779,6525710,20,Female,NULL,NULL,ts-trial,157,559257,0.0-157.0,2020-06-08_blueprint_4a1eb7bb9ca8df26499a32ddc418f82a.json,NULL,NULL,NULL,NULL,553364,"[553869,554368,554868,555368,555867,556366]",556520,558133,1,1,1,ts-trial-spatial-span,,,,,,,,,,,,,,,,,,,,,,,,,,,,,,,
283.00000000000006_59779,6525710,20,Female,NULL,NULL,ts-trial,159,565819,0.0-159.0,2020-06-08_blueprint_4a1eb7bb9ca8df26499a32ddc418f82a.json,NULL,NULL,NULL,NULL,559925,"[560429,560929,561429,561928,562427,562927]",563081,565047,0,0,1,ts-trial-spatial-span,,,,,,,,,,,,,,,,,,,,,,,,,,,,,,,
283.00000000000006_59779,6525710,20,Female,NULL,NULL,ts-trial,161,572315,0.0-161.0,2020-06-08_blueprint_4a1eb7bb9ca8df26499a32ddc418f82a.json,NULL,NULL,NULL,NULL,566420,"[566925.0000000001,567425.0000000001,567923,568423,568922,569422]",569577,571163,2,2,1,ts-trial-spatial-span,,,,,,,,,,,,,,,,,,,,,,,,,,,,,,,
283.00000000000006_59779,6525710,20,Female,NULL,NULL,ts-trial,163,579031,0.0-163.0,2020-06-08_blueprint_4a1eb7bb9ca8df26499a32ddc418f82a.json,NULL,NULL,NULL,NULL,573136,"[573642,574141,574641,575140,575639,576138]",576293,577653,2,2,1,ts-trial-spatial-span,,,,,,,,,,,,,,,,,,,,,,,,,,,,,,,
283.00000000000006_59779,6525710,20,Female,NULL,NULL,ts-trial,165,585694,0.0-165.0,2020-06-08_blueprint_4a1eb7bb9ca8df26499a32ddc418f82a.json,NULL,NULL,NULL,NULL,579798,"[580303,580802,581302,581802,582301,582800.0000000001]",582955,584365,0,0,1,ts-trial-spatial-span,,,,,,,,,,,,,,,,,,,,,,,,,,,,,,,
283.00000000000006_59779,6525710,20,Female,NULL,NULL,ts-trial,167,592486,0.0-167.0,2020-06-08_blueprint_4a1eb7bb9ca8df26499a32ddc418f82a.json,NULL,NULL,NULL,NULL,586591,"[587096,587595,588094,588595,589094,589592]",589747,591316,1,1,1,ts-trial-spatial-span,,,,,,,,,,,,,,,,,,,,,,,,,,,,,,,
283.00000000000006_59779,6525710,20,Female,NULL,NULL,ts-info-card,168,592989,0.0-168.0,2020-06-08_blueprint_4a1eb7bb9ca8df26499a32ddc418f82a.json,NULL,NULL,592751,593253,NULL,NULL,NULL,NULL,NULL,NULL,NULL,NULL,,,,,,,,,,,,,,,,,,,,,,,,,,,,,,,
283.00000000000006_59779,6525710,20,Female,NULL,NULL,ts-trial,169,597649,0.0-169.0,2020-06-08_blueprint_4a1eb7bb9ca8df26499a32ddc418f82a.json,NULL,NULL,NULL,NULL,593255,"[593510,593758,594009,594259,594508,594758]",594912,596434,2,2,1,ts-trial-digit-span,,,,,,,,,,,,,,,,,,,,,,,,,,,,,,,
283.00000000000006_59779,6525710,20,Female,NULL,NULL,ts-trial,171,602694,0.0-171.0,2020-06-08_blueprint_4a1eb7bb9ca8df26499a32ddc418f82a.json,NULL,NULL,NULL,NULL,598300,"[598555.0000000001,598805.0000000001,599054,599303,599552,599802]",599957,601815,1,2,,ts-trial-digit-span,,,,,,,,,,,,,,,,,,,,,,,,,,,,,,,
283.00000000000006_59779,6525710,20,Female,NULL,NULL,ts-trial,173,608329,0.0-173.0,2020-06-08_blueprint_4a1eb7bb9ca8df26499a32ddc418f82a.json,NULL,NULL,NULL,NULL,603934,"[604188,604437,604687,604936,605186,605436]",605589,606966,2,2,1,ts-trial-digit-span,,,,,,,,,,,,,,,,,,,,,,,,,,,,,,,
283.00000000000006_59779,6525710,20,Female,NULL,NULL,ts-trial,175,613386,0.0-175.0,2020-06-08_blueprint_4a1eb7bb9ca8df26499a32ddc418f82a.json,NULL,NULL,NULL,NULL,608991,"[609245,609495,609744,609994,610243,610493]",610647,612270,2,2,1,ts-trial-digit-span,,,,,,,,,,,,,,,,,,,,,,,,,,,,,,,
283.00000000000006_59779,6525710,20,Female,NULL,NULL,ts-trial,177,618670,0.0-177.0,2020-06-08_blueprint_4a1eb7bb9ca8df26499a32ddc418f82a.json,NULL,NULL,NULL,NULL,614274,"[614529,614779,615029,615278,615527,615776.0000000001]",615930,617525,1,1,1,ts-trial-digit-span,,,,,,,,,,,,,,,,,,,,,,,,,,,,,,,
283.00000000000006_59779,6525710,20,Female,NULL,NULL,ts-trial,179,623851,0.0-179.0,2020-06-08_blueprint_4a1eb7bb9ca8df26499a32ddc418f82a.json,NULL,NULL,NULL,NULL,619456,"[619710,619960,620210,620459.0000000001,620709.0000000001,620958]",621111,623078,2,2,1,ts-trial-digit-span,,,,,,,,,,,,,,,,,,,,,,,,,,,,,,,
283.00000000000006_59779,6525710,20,Female,NULL,NULL,ts-trial,181,629518,0.0-181.0,2020-06-08_blueprint_4a1eb7bb9ca8df26499a32ddc418f82a.json,NULL,NULL,NULL,NULL,625121,"[625376,625626,625875,626125,626374,626624]",626778,628544,1,1,1,ts-trial-digit-span,,,,,,,,,,,,,,,,,,,,,,,,,,,,,,,
283.00000000000006_59779,6525710,20,Female,NULL,NULL,ts-info-card,182,630021,0.0-182.0,2020-06-08_blueprint_4a1eb7bb9ca8df26499a32ddc418f82a.json,NULL,NULL,629782,630283,NULL,NULL,NULL,NULL,NULL,NULL,NULL,NULL,,,,,,,,,,,,,,,,,,,,,,,,,,,,,,,
283.00000000000006_59779,6525710,20,Female,NULL,NULL,ts-trial,183,636181,0.0-183.0,2020-06-08_blueprint_4a1eb7bb9ca8df26499a32ddc418f82a.json,NULL,NULL,NULL,NULL,630285,"[630789,631289,631789,632288,632788,633286]",633441,635018,2,2,1,ts-trial-spatial-rotation,,,,,,,,,,,,,,,,,,,,,,,,,,,,,,,
283.00000000000006_59779,6525710,20,Female,NULL,NULL,ts-trial,185,642499,0.0-185.0,2020-06-08_blueprint_4a1eb7bb9ca8df26499a32ddc418f82a.json,NULL,NULL,NULL,NULL,636604,"[637108.0000000001,637608.0000000001,638107,638607,639106,639606]",639760,640961,0,0,1,ts-trial-spatial-rotation,,,,,,,,,,,,,,,,,,,,,,,,,,,,,,,
283.00000000000006_59779,6525710,20,Female,NULL,NULL,ts-trial,187,649451,0.0-187.0,2020-06-08_blueprint_4a1eb7bb9ca8df26499a32ddc418f82a.json,NULL,NULL,NULL,NULL,643554,"[644059,644559,645058,645557,646057,646557]",646711,648602,0,2,,ts-trial-spatial-rotation,,,,,,,,,,,,,,,,,,,,,,,,,,,,,,,
283.00000000000006_59779,6525710,20,Female,NULL,NULL,ts-trial,189,655972,0.0-189.0,2020-06-08_blueprint_4a1eb7bb9ca8df26499a32ddc418f82a.json,NULL,NULL,NULL,NULL,650076,"[650581,651081,651580,652080,652579.0000000001,653078]",653231,654977,2,1,,ts-trial-spatial-rotation,,,,,,,,,,,,,,,,,,,,,,,,,,,,,,,
283.00000000000006_59779,6525710,20,Female,NULL,NULL,ts-block-break,190,655979,0.0-190.0,2020-06-08_blueprint_4a1eb7bb9ca8df26499a32ddc418f82a.json,NULL,NULL,656235,656240,NULL,NULL,NULL,NULL,NULL,NULL,NULL,NULL,,,,,,,,,,,,,,,,,,,,,,,,,,,,,,,
283.00000000000006_59779,6525710,20,Female,NULL,NULL,ts-info-card,191,659981,0.0-191.0,2020-06-08_blueprint_4a1eb7bb9ca8df26499a32ddc418f82a.json,NULL,NULL,656242,660243,NULL,NULL,NULL,NULL,NULL,NULL,NULL,NULL,,,,,,,,,,,,,,,,,,,,,,,,,,,,,,,
283.00000000000006_59779,6525710,20,Female,NULL,NULL,ts-trial,192,666142,0.0-192.0,2020-06-08_blueprint_4a1eb7bb9ca8df26499a32ddc418f82a.json,NULL,NULL,NULL,NULL,660244,"[660750,661249,661749,662248,662747,663247]",663401,665160,0,1,,ts-trial-spatial-rotation,,,,,,,,,,,,,,,,,,,,,,,,,,,,,,,
283.00000000000006_59779,6525710,20,Female,NULL,NULL,ts-trial,194,673243,0.0-194.0,2020-06-08_blueprint_4a1eb7bb9ca8df26499a32ddc418f82a.json,NULL,NULL,NULL,NULL,667344,"[667851,668350,668849,669348.0000000001,669847,670346]",670503,672462,2,1,,ts-trial-spatial-rotation,,,,,,,,,,,,,,,,,,,,,,,,,,,,,,,
283.00000000000006_59779,6525710,20,Female,NULL,NULL,ts-trial,196,680108,0.0-196.0,2020-06-08_blueprint_4a1eb7bb9ca8df26499a32ddc418f82a.json,NULL,NULL,NULL,NULL,674210,"[674715,675214,675714,676214,676712,677212]",677367,679237,0,1,,ts-trial-spatial-rotation,,,,,,,,,,,,,,,,,,,,,,,,,,,,,,,
283.00000000000006_59779,6525710,20,Female,NULL,NULL,ts-trial,198,687292,0.0-198.0,2020-06-08_blueprint_4a1eb7bb9ca8df26499a32ddc418f82a.json,NULL,NULL,NULL,NULL,681392,"[681896,682397,682896,683396,683894,684394]",684550,685838,0,2,,ts-trial-spatial-rotation,,,,,,,,,,,,,,,,,,,,,,,,,,,,,,,
283.00000000000006_59779,6525710,20,Female,NULL,NULL,ts-info-card,199,691295,0.0-199.0,2020-06-08_blueprint_4a1eb7bb9ca8df26499a32ddc418f82a.json,NULL,NULL,687554,691555,NULL,NULL,NULL,NULL,NULL,NULL,NULL,NULL,,,,,,,,,,,,,,,,,,,,,,,,,,,,,,,
283.00000000000006_59779,6525710,20,Female,NULL,NULL,ts-trial,200,697455,0.0-200.0,2020-06-08_blueprint_4a1eb7bb9ca8df26499a32ddc418f82a.json,NULL,NULL,NULL,NULL,691557,"[692063,692562,693062,693561,694061,694560.0000000001]",694714,696329,0,0,1,ts-trial-spatial-span,,,,,,,,,,,,,,,,,,,,,,,,,,,,,,,
283.00000000000006_59779,6525710,20,Female,NULL,NULL,ts-trial,202,704132,0.0-202.0,2020-06-08_blueprint_4a1eb7bb9ca8df26499a32ddc418f82a.json,NULL,NULL,NULL,NULL,698233,"[698738,699237,699737,700236,700734,701234]",701390,703073,0,0,1,ts-trial-spatial-span,,,,,,,,,,,,,,,,,,,,,,,,,,,,,,,
283.00000000000006_59779,6525710,20,Female,NULL,NULL,ts-trial,204,711033,0.0-204.0,2020-06-08_blueprint_4a1eb7bb9ca8df26499a32ddc418f82a.json,NULL,NULL,NULL,NULL,705134,"[705639,706139,706638,707137,707637,708136]",708291,709728,2,2,1,ts-trial-spatial-span,,,,,,,,,,,,,,,,,,,,,,,,,,,,,,,
283.00000000000006_59779,6525710,20,Female,NULL,NULL,ts-trial,206,717790,0.0-206.0,2020-06-08_blueprint_4a1eb7bb9ca8df26499a32ddc418f82a.json,NULL,NULL,NULL,NULL,711890,"[712395,712895,713394,713893,714393,714892]",715047,716879,2,1,,ts-trial-spatial-span,,,,,,,,,,,,,,,,,,,,,,,,,,,,,,,
283.00000000000006_59779,6525710,20,Female,NULL,NULL,ts-trial,208,724780,0.0-208.0,2020-06-08_blueprint_4a1eb7bb9ca8df26499a32ddc418f82a.json,NULL,NULL,NULL,NULL,718880,"[719385,719885,720383,720883,721383,721883]",722037,723358,2,1,,ts-trial-spatial-span,,,,,,,,,,,,,,,,,,,,,,,,,,,,,,,
283.00000000000006_59779,6525710,20,Female,NULL,NULL,ts-trial,210,731558,0.0-210.0,2020-06-08_blueprint_4a1eb7bb9ca8df26499a32ddc418f82a.json,NULL,NULL,NULL,NULL,725657,"[726163,726663,727162,727661,728161,728660]",728816,730362,0,1,,ts-trial-spatial-span,,,,,,,,,,,,,,,,,,,,,,,,,,,,,,,
283.00000000000006_59779,6525710,20,Female,NULL,NULL,ts-trial,212,738324,0.0-212.0,2020-06-08_blueprint_4a1eb7bb9ca8df26499a32ddc418f82a.json,NULL,NULL,NULL,NULL,732424,"[732929,733427,733927,734426,734926,735426]",735581,736619,1,1,1,ts-trial-spatial-span,,,,,,,,,,,,,,,,,,,,,,,,,,,,,,,
283.00000000000006_59779,6525710,20,Female,NULL,NULL,ts-info-card,213,738827,0.0-213.0,2020-06-08_blueprint_4a1eb7bb9ca8df26499a32ddc418f82a.json,NULL,NULL,738585,739086,NULL,NULL,NULL,NULL,NULL,NULL,NULL,NULL,,,,,,,,,,,,,,,,,,,,,,,,,,,,,,,
283.00000000000006_59779,6525710,20,Female,NULL,NULL,ts-trial,214,744987,0.0-214.0,2020-06-08_blueprint_4a1eb7bb9ca8df26499a32ddc418f82a.json,NULL,NULL,NULL,NULL,739088,"[739592,740092,740592,741091,741591,742090]",742245,744234,2,0,,ts-trial-spatial-rotation,,,,,,,,,,,,,,,,,,,,,,,,,,,,,,,
283.00000000000006_59779,6525710,20,Female,NULL,NULL,ts-trial,216,751366,0.0-216.0,2020-06-08_blueprint_4a1eb7bb9ca8df26499a32ddc418f82a.json,NULL,NULL,NULL,NULL,745466,"[745971,746471,746970,747470,747969,748469]",748623,750059,2,2,1,ts-trial-spatial-rotation,,,,,,,,,,,,,,,,,,,,,,,,,,,,,,,
283.00000000000006_59779,6525710,20,Female,NULL,NULL,ts-trial,218,758066,0.0-218.0,2020-06-08_blueprint_4a1eb7bb9ca8df26499a32ddc418f82a.json,NULL,NULL,NULL,NULL,752165,"[752670,753170,753669,754168,754667,755168]",755322,756796,1,1,1,ts-trial-spatial-rotation,,,,,,,,,,,,,,,,,,,,,,,,,,,,,,,
283.00000000000006_59779,6525710,20,Female,NULL,NULL,ts-trial,220,764405,0.0-220.0,2020-06-08_blueprint_4a1eb7bb9ca8df26499a32ddc418f82a.json,NULL,NULL,NULL,NULL,758504,"[759009,759509,760008,760506,761007.0000000001,761506]",761661,762944,1,2,,ts-trial-spatial-rotation,,,,,,,,,,,,,,,,,,,,,,,,,,,,,,,
283.00000000000006_59779,6525710,20,Female,NULL,NULL,ts-trial,222,770906,0.0-222.0,2020-06-08_blueprint_4a1eb7bb9ca8df26499a32ddc418f82a.json,NULL,NULL,NULL,NULL,765005,"[765510,766009,766509,767007.0000000001,767507.0000000001,768007.0000000001]",768162,769553,1,1,1,ts-trial-spatial-rotation,,,,,,,,,,,,,,,,,,,,,,,,,,,,,,,
283.00000000000006_59779,6525710,20,Female,NULL,NULL,ts-trial,224,777992,0.0-224.0,2020-06-08_blueprint_4a1eb7bb9ca8df26499a32ddc418f82a.json,NULL,NULL,NULL,NULL,772091,"[772595,773096,773595,774094,774594,775093]",775248,776254,2,0,,ts-trial-spatial-rotation,,,,,,,,,,,,,,,,,,,,,,,,,,,,,,,
283.00000000000006_59779,6525710,20,Female,NULL,NULL,ts-trial,226,785002,0.0-226.0,2020-06-08_blueprint_4a1eb7bb9ca8df26499a32ddc418f82a.json,NULL,NULL,NULL,NULL,779100,"[779606,780105,780605,781104,781603.0000000001,782103.0000000001]",782258,783407,0,2,,ts-trial-spatial-rotation,,,,,,,,,,,,,,,,,,,,,,,,,,,,,,,
283.00000000000006_59779,6525710,20,Female,NULL,NULL,ts-trial,228,791902,0.0-228.0,2020-06-08_blueprint_4a1eb7bb9ca8df26499a32ddc418f82a.json,NULL,NULL,NULL,NULL,786001,"[786506,787005,787505,788004,788502.0000000001,789002.0000000001]",789158,790628,2,2,1,ts-trial-spatial-rotation,,,,,,,,,,,,,,,,,,,,,,,,,,,,,,,
283.00000000000006_59779,6525710,20,Female,NULL,NULL,ts-trial,230,798592,0.0-230.0,2020-06-08_blueprint_4a1eb7bb9ca8df26499a32ddc418f82a.json,NULL,NULL,NULL,NULL,792690,"[793195,793695,794194,794694,795192,795691]",795847,797820,0,0,1,ts-trial-spatial-rotation,,,,,,,,,,,,,,,,,,,,,,,,,,,,,,,
283.00000000000006_59779,6525710,20,Female,NULL,NULL,ts-info-card,231,802594,0.0-231.0,2020-06-08_blueprint_4a1eb7bb9ca8df26499a32ddc418f82a.json,NULL,NULL,798850,802851,NULL,NULL,NULL,NULL,NULL,NULL,NULL,NULL,,,,,,,,,,,,,,,,,,,,,,,,,,,,,,,
283.00000000000006_59779,6525710,20,Female,NULL,NULL,ts-trial,232,807253,0.0-232.0,2020-06-08_blueprint_4a1eb7bb9ca8df26499a32ddc418f82a.json,NULL,NULL,NULL,NULL,802852,"[803106,803356,803606,803854,804105,804355]",804508,805997,2,1,,ts-trial-digit-span,,,,,,,,,,,,,,,,,,,,,,,,,,,,,,,
283.00000000000006_59779,6525710,20,Female,NULL,NULL,ts-trial,234,812683,0.0-234.0,2020-06-08_blueprint_4a1eb7bb9ca8df26499a32ddc418f82a.json,NULL,NULL,NULL,NULL,808281,"[808536,808786,809035,809284,809533,809783]",809938,811714,1,0,,ts-trial-digit-span,,,,,,,,,,,,,,,,,,,,,,,,,,,,,,,
283.00000000000006_59779,6525710,20,Female,NULL,NULL,ts-trial,236,818256,0.0-236.0,2020-06-08_blueprint_4a1eb7bb9ca8df26499a32ddc418f82a.json,NULL,NULL,NULL,NULL,813853,"[814109,814358.0000000001,814608.0000000001,814857,815106,815355]",815510,817274,2,0,,ts-trial-digit-span,,,,,,,,,,,,,,,,,,,,,,,,,,,,,,,
283.00000000000006_59779,6525710,20,Female,NULL,NULL,ts-trial,238,823128,0.0-238.0,2020-06-08_blueprint_4a1eb7bb9ca8df26499a32ddc418f82a.json,NULL,NULL,NULL,NULL,818726,"[818980,819230,819480,819729,819978.0000000001,820228.0000000001]",820382,821873,2,0,,ts-trial-digit-span,,,,,,,,,,,,,,,,,,,,,,,,,,,,,,,
283.00000000000006_59779,6525710,20,Female,NULL,NULL,ts-trial,240,828669,0.0-240.0,2020-06-08_blueprint_4a1eb7bb9ca8df26499a32ddc418f82a.json,NULL,NULL,NULL,NULL,824266,"[824521.0000000001,824770,825020,825269,825518,825768]",825923,827436,0,0,1,ts-trial-digit-span,,,,,,,,,,,,,,,,,,,,,,,,,,,,,,,
283.00000000000006_59779,6525710,20,Female,NULL,NULL,ts-trial,242,834420,0.0-242.0,2020-06-08_blueprint_4a1eb7bb9ca8df26499a32ddc418f82a.json,NULL,NULL,NULL,NULL,830016,"[830272,830521.0000000001,830771.0000000001,831021.0000000001,831270,831519]",831674,833249,2,0,,ts-trial-digit-span,,,,,,,,,,,,,,,,,,,,,,,,,,,,,,,
283.00000000000006_59779,6525710,20,Female,NULL,NULL,ts-info-card,243,834923,0.0-243.0,2020-06-08_blueprint_4a1eb7bb9ca8df26499a32ddc418f82a.json,NULL,NULL,834678,835179,NULL,NULL,NULL,NULL,NULL,NULL,NULL,NULL,,,,,,,,,,,,,,,,,,,,,,,,,,,,,,,
283.00000000000006_59779,6525710,20,Female,NULL,NULL,ts-trial,244,841086,0.0-244.0,2020-06-08_blueprint_4a1eb7bb9ca8df26499a32ddc418f82a.json,NULL,NULL,NULL,NULL,835181,"[835688,836188,836687,837187,837686,838186]",838340,839749,1,1,1,ts-trial-spatial-rotation,,,,,,,,,,,,,,,,,,,,,,,,,,,,,,,
283.00000000000006_59779,6525710,20,Female,NULL,NULL,ts-trial,246,848208,0.0-246.0,2020-06-08_blueprint_4a1eb7bb9ca8df26499a32ddc418f82a.json,NULL,NULL,NULL,NULL,842305,"[842809,843309,843808,844308,844807,845306]",845461,846615,0,0,1,ts-trial-spatial-rotation,,,,,,,,,,,,,,,,,,,,,,,,,,,,,,,
283.00000000000006_59779,6525710,20,Female,NULL,NULL,ts-trial,248,855258,0.0-248.0,2020-06-08_blueprint_4a1eb7bb9ca8df26499a32ddc418f82a.json,NULL,NULL,NULL,NULL,849356,"[849861,850360,850860,851359,851858.0000000001,852358.0000000001]",852512,853466,2,1,,ts-trial-spatial-rotation,,,,,,,,,,,,,,,,,,,,,,,,,,,,,,,
283.00000000000006_59779,6525710,20,Female,NULL,NULL,ts-trial,250,861789,0.0-250.0,2020-06-08_blueprint_4a1eb7bb9ca8df26499a32ddc418f82a.json,NULL,NULL,NULL,NULL,855886,"[856391,856891,857391,857890,858389,858889]",859043,860234,0,2,,ts-trial-spatial-rotation,,,,,,,,,,,,,,,,,,,,,,,,,,,,,,,
283.00000000000006_59779,6525710,20,Female,NULL,NULL,ts-trial,252,868500,0.0-252.0,2020-06-08_blueprint_4a1eb7bb9ca8df26499a32ddc418f82a.json,NULL,NULL,NULL,NULL,862596,"[863102,863601,864101,864600,865099,865598.0000000001]",865753,866946,1,1,1,ts-trial-spatial-rotation,,,,,,,,,,,,,,,,,,,,,,,,,,,,,,,
283.00000000000006_59779,6525710,20,Female,NULL,NULL,ts-trial,254,875281,0.0-254.0,2020-06-08_blueprint_4a1eb7bb9ca8df26499a32ddc418f82a.json,NULL,NULL,NULL,NULL,869377,"[869882.0000000001,870381,870881,871380,871879,872379]",872534,874103,0,2,,ts-trial-spatial-rotation,,,,,,,,,,,,,,,,,,,,,,,,,,,,,,,
283.00000000000006_59779,6525710,20,Female,NULL,NULL,ts-info-card,255,875784,0.0-255.0,2020-06-08_blueprint_4a1eb7bb9ca8df26499a32ddc418f82a.json,NULL,NULL,875537,876039,NULL,NULL,NULL,NULL,NULL,NULL,NULL,NULL,,,,,,,,,,,,,,,,,,,,,,,,,,,,,,,
283.00000000000006_59779,6525710,20,Female,NULL,NULL,ts-trial,256,881946,0.0-256.0,2020-06-08_blueprint_4a1eb7bb9ca8df26499a32ddc418f82a.json,NULL,NULL,NULL,NULL,876040,"[876544,877045.0000000001,877544,878044,878542,879042]",879198,880126,2,1,,ts-trial-spatial-span,,,,,,,,,,,,,,,,,,,,,,,,,,,,,,,
283.00000000000006_59779,6525710,20,Female,NULL,NULL,ts-trial,258,888252,0.0-258.0,2020-06-08_blueprint_4a1eb7bb9ca8df26499a32ddc418f82a.json,NULL,NULL,NULL,NULL,882349,"[882853.0000000001,883353.0000000001,883853.0000000001,884352,884852,885351]",885505,887427,2,1,,ts-trial-spatial-span,,,,,,,,,,,,,,,,,,,,,,,,,,,,,,,
283.00000000000006_59779,6525710,20,Female,NULL,NULL,ts-trial,260,894522,0.0-260.0,2020-06-08_blueprint_4a1eb7bb9ca8df26499a32ddc418f82a.json,NULL,NULL,NULL,NULL,888617,"[889122.0000000001,889622.0000000001,890121,890620,891120,891619]",891774,893222,0,1,,ts-trial-spatial-span,,,,,,,,,,,,,,,,,,,,,,,,,,,,,,,
283.00000000000006_59779,6525710,20,Female,NULL,NULL,ts-trial,262,901668,0.0-262.0,2020-06-08_blueprint_4a1eb7bb9ca8df26499a32ddc418f82a.json,NULL,NULL,NULL,NULL,895763,"[896268,896767,897267,897767,898265,898765]",898920,900391,2,1,,ts-trial-spatial-span,,,,,,,,,,,,,,,,,,,,,,,,,,,,,,,
283.00000000000006_59779,6525710,20,Female,NULL,NULL,ts-trial,264,908603,0.0-264.0,2020-06-08_blueprint_4a1eb7bb9ca8df26499a32ddc418f82a.json,NULL,NULL,NULL,NULL,902698,"[903203,903702,904202,904701,905200,905700]",905854,907656,0,1,,ts-trial-spatial-span,,,,,,,,,,,,,,,,,,,,,,,,,,,,,,,
283.00000000000006_59779,6525710,20,Female,NULL,NULL,ts-trial,266,915804,0.0-266.0,2020-06-08_blueprint_4a1eb7bb9ca8df26499a32ddc418f82a.json,NULL,NULL,NULL,NULL,909899,"[910403,910903,911402,911902,912401.0000000001,912900]",913056,915070,0,0,1,ts-trial-spatial-span,,,,,,,,,,,,,,,,,,,,,,,,,,,,,,,
283.00000000000006_59779,6525710,20,Female,NULL,NULL,ts-info-card,267,919807,0.0-267.0,2020-06-08_blueprint_4a1eb7bb9ca8df26499a32ddc418f82a.json,NULL,NULL,916059,920061,NULL,NULL,NULL,NULL,NULL,NULL,NULL,NULL,,,,,,,,,,,,,,,,,,,,,,,,,,,,,,,
283.00000000000006_59779,6525710,20,Female,NULL,NULL,ts-trial,268,925968,0.0-268.0,2020-06-08_blueprint_4a1eb7bb9ca8df26499a32ddc418f82a.json,NULL,NULL,NULL,NULL,920063,"[920568,921067,921567,922066,922565,923065]",923219,924946,0,2,,ts-trial-spatial-rotation,,,,,,,,,,,,,,,,,,,,,,,,,,,,,,,
283.00000000000006_59779,6525710,20,Female,NULL,NULL,ts-trial,270,932984,0.0-270.0,2020-06-08_blueprint_4a1eb7bb9ca8df26499a32ddc418f82a.json,NULL,NULL,NULL,NULL,927078,"[927584.0000000001,928083,928583,929082,929581,930081]",930235,932005,0,0,1,ts-trial-spatial-rotation,,,,,,,,,,,,,,,,,,,,,,,,,,,,,,,
283.00000000000006_59779,6525710,20,Female,NULL,NULL,ts-trial,272,939497,0.0-272.0,2020-06-08_blueprint_4a1eb7bb9ca8df26499a32ddc418f82a.json,NULL,NULL,NULL,NULL,933591,"[934096,934596,935095,935594,936093.0000000001,936593.0000000001]",936748,938278,1,2,,ts-trial-spatial-rotation,,,,,,,,,,,,,,,,,,,,,,,,,,,,,,,
283.00000000000006_59779,6525710,20,Female,NULL,NULL,ts-trial,274,945998,0.0-274.0,2020-06-08_blueprint_4a1eb7bb9ca8df26499a32ddc418f82a.json,NULL,NULL,NULL,NULL,940091,"[940596,941096,941595,942094,942594,943094]",943249,944514,2,2,1,ts-trial-spatial-rotation,,,,,,,,,,,,,,,,,,,,,,,,,,,,,,,
283.00000000000006_59779,6525710,20,Female,NULL,NULL,ts-trial,276,952303,0.0-276.0,2020-06-08_blueprint_4a1eb7bb9ca8df26499a32ddc418f82a.json,NULL,NULL,NULL,NULL,946397,"[946902,947402,947901.0000000001,948400,948900,949400]",949554,951322,1,1,1,ts-trial-spatial-rotation,,,,,,,,,,,,,,,,,,,,,,,,,,,,,,,
283.00000000000006_59779,6525710,20,Female,NULL,NULL,ts-trial,278,959045,0.0-278.0,2020-06-08_blueprint_4a1eb7bb9ca8df26499a32ddc418f82a.json,NULL,NULL,NULL,NULL,953139,"[953645,954143,954643,955143,955642,956142]",956296,958440,1,1,1,ts-trial-spatial-rotation,,,,,,,,,,,,,,,,,,,,,,,,,,,,,,,
283.00000000000006_59779,6525710,20,Female,NULL,NULL,ts-info-card,279,959548,0.0-279.0,2020-06-08_blueprint_4a1eb7bb9ca8df26499a32ddc418f82a.json,NULL,NULL,959300,959801,NULL,NULL,NULL,NULL,NULL,NULL,NULL,NULL,,,,,,,,,,,,,,,,,,,,,,,,,,,,,,,
283.00000000000006_59779,6525710,20,Female,NULL,NULL,ts-trial,280,965710,0.0-280.0,2020-06-08_blueprint_4a1eb7bb9ca8df26499a32ddc418f82a.json,NULL,NULL,NULL,NULL,959803,"[960308,960806,961307,961807,962305.0000000001,962805.0000000001]",962960,964342,0,0,1,ts-trial-spatial-span,,,,,,,,,,,,,,,,,,,,,,,,,,,,,,,
283.00000000000006_59779,6525710,20,Female,NULL,NULL,ts-trial,282,971986,0.0-282.0,2020-06-08_blueprint_4a1eb7bb9ca8df26499a32ddc418f82a.json,NULL,NULL,NULL,NULL,966080,"[966585,967083,967583,968083,968582,969081]",969236,970624,0,0,1,ts-trial-spatial-span,,,,,,,,,,,,,,,,,,,,,,,,,,,,,,,
283.00000000000006_59779,6525710,20,Female,NULL,NULL,ts-trial,284,978339,0.0-284.0,2020-06-08_blueprint_4a1eb7bb9ca8df26499a32ddc418f82a.json,NULL,NULL,NULL,NULL,972432,"[972935.0000000001,973434,973935.0000000001,974435.0000000001,974934,975434]",975587,977558,1,0,,ts-trial-spatial-span,,,,,,,,,,,,,,,,,,,,,,,,,,,,,,,
283.00000000000006_59779,6525710,20,Female,NULL,NULL,ts-trial,286,984984,0.0-286.0,2020-06-08_blueprint_4a1eb7bb9ca8df26499a32ddc418f82a.json,NULL,NULL,NULL,NULL,979073,"[979578,980077,980577,981076,981576,982075]",982230,983947,0,0,1,ts-trial-spatial-span,,,,,,,,,,,,,,,,,,,,,,,,,,,,,,,
283.00000000000006_59779,6525710,20,Female,NULL,NULL,ts-trial,288,992245,0.0-288.0,2020-06-08_blueprint_4a1eb7bb9ca8df26499a32ddc418f82a.json,NULL,NULL,NULL,NULL,986332,"[986837,987337,987836,988336,988835,989334.0000000001]",989489,990610,2,0,,ts-trial-spatial-span,,,,,,,,,,,,,,,,,,,,,,,,,,,,,,,
283.00000000000006_59779,6525710,20,Female,NULL,NULL,ts-trial,290,999331,0.0-290.0,2020-06-08_blueprint_4a1eb7bb9ca8df26499a32ddc418f82a.json,NULL,NULL,NULL,NULL,993417,"[993922,994422,994922,995421,995919,996419]",996575,997687,1,0,,ts-trial-spatial-span,,,,,,,,,,,,,,,,,,,,,,,,,,,,,,,
283.00000000000006_59779,6525710,20,Female,NULL,NULL,ts-trial,292,1005847,0.0-292.0,2020-06-08_blueprint_4a1eb7bb9ca8df26499a32ddc418f82a.json,NULL,NULL,NULL,NULL,999933,"[1000438,1000938,1001437,1001936,1002436,1002935.0000000001]",1003090,1004670,2,0,,ts-trial-spatial-span,,,,,,,,,,,,,,,,,,,,,,,,,,,,,,,
283.00000000000006_59779,6525710,20,Female,NULL,NULL,ts-trial,294,1012343,0.0-294.0,2020-06-08_blueprint_4a1eb7bb9ca8df26499a32ddc418f82a.json,NULL,NULL,NULL,NULL,1006429,"[1006934,1007433,1007933,1008432,1008931,1009431]",1009586,1011146,0,2,,ts-trial-spatial-span,,,,,,,,,,,,,,,,,,,,,,,,,,,,,,,
283.00000000000006_59779,6525710,20,Female,NULL,NULL,ts-trial,296,1018812,0.0-296.0,2020-06-08_blueprint_4a1eb7bb9ca8df26499a32ddc418f82a.json,NULL,NULL,NULL,NULL,1012898,"[1013401.0000000001,1013902,1014401.0000000001,1014901.0000000001,1015399,1015899]",1016054,1017877,1,1,1,ts-trial-spatial-span,,,,,,,,,,,,,,,,,,,,,,,,,,,,,,,
283.00000000000006_59779,6525710,20,Female,NULL,NULL,ts-info-card,297,1022815,0.0-297.0,2020-06-08_blueprint_4a1eb7bb9ca8df26499a32ddc418f82a.json,NULL,NULL,1019058,1023059,NULL,NULL,NULL,NULL,NULL,NULL,NULL,NULL,,,,,,,,,,,,,,,,,,,,,,,,,,,,,,,
283.00000000000006_59779,6525710,20,Female,NULL,NULL,ts-trial,298,1027476,0.0-298.0,2020-06-08_blueprint_4a1eb7bb9ca8df26499a32ddc418f82a.json,NULL,NULL,NULL,NULL,1023061,"[1023316,1023566,1023815,1024065,1024314.0000000001,1024562.0000000001]",1024718,1026607,0,0,1,ts-trial-digit-span,,,,,,,,,,,,,,,,,,,,,,,,,,,,,,,
283.00000000000006_59779,6525710,20,Female,NULL,NULL,ts-trial,300,1032789,0.0-300.0,2020-06-08_blueprint_4a1eb7bb9ca8df26499a32ddc418f82a.json,NULL,NULL,NULL,NULL,1028376,"[1028631.0000000001,1028880.0000000001,1029130.0000000001,1029377.9999999999,1029627.9999999999,1029877.9999999999]",1030032,1031919,2,2,1,ts-trial-digit-span,,,,,,,,,,,,,,,,,,,,,,,,,,,,,,,
283.00000000000006_59779,6525710,20,Female,NULL,NULL,ts-trial,302,1037922,0.0-302.0,2020-06-08_blueprint_4a1eb7bb9ca8df26499a32ddc418f82a.json,NULL,NULL,NULL,NULL,1033508,"[1033762,1034011,1034262,1034511,1034760,1035010]",1035164,1036688,1,0,,ts-trial-digit-span,,,,,,,,,,,,,,,,,,,,,,,,,,,,,,,
283.00000000000006_59779,6525710,20,Female,NULL,NULL,ts-trial,304,1042797,0.0-304.0,2020-06-08_blueprint_4a1eb7bb9ca8df26499a32ddc418f82a.json,NULL,NULL,NULL,NULL,1038381,"[1038636,1038886,1039135,1039385,1039634,1039884]",1040038,1042963,0,0,1,ts-trial-digit-span,,,,,,,,,,,,,,,,,,,,,,,,,,,,,,,
283.00000000000006_59779,6525710,20,Female,NULL,NULL,ts-trial,306,1047570,0.0-306.0,2020-06-08_blueprint_4a1eb7bb9ca8df26499a32ddc418f82a.json,NULL,NULL,NULL,NULL,1043154,"[1043408.0000000001,1043658.0000000001,1043908.0000000001,1044156.9999999999,1044406.9999999999,1044656]",1044811,1046854,1,1,1,ts-trial-digit-span,,,,,,,,,,,,,,,,,,,,,,,,,,,,,,,
283.00000000000006_59779,6525710,20,Female,NULL,NULL,ts-trial,308,1052703,0.0-308.0,2020-06-08_blueprint_4a1eb7bb9ca8df26499a32ddc418f82a.json,NULL,NULL,NULL,NULL,1048287,"[1048541.9999999999,1048791,1049041,1049291,1049540,1049789]",1049944,1051768,0,0,1,ts-trial-digit-span,,,,,,,,,,,,,,,,,,,,,,,,,,,,,,,
283.00000000000006_59779,6525710,20,Female,NULL,NULL,ts-trial,310,1057519,0.0-310.0,2020-06-08_blueprint_4a1eb7bb9ca8df26499a32ddc418f82a.json,NULL,NULL,NULL,NULL,1053104,"[1053358,1053608,1053857,1054107,1054356,1054605]",1054760,1056964,2,2,1,ts-trial-digit-span,,,,,,,,,,,,,,,,,,,,,,,,,,,,,,,
283.00000000000006_59779,6525710,20,Female,NULL,NULL,ts-trial,312,1062667,0.0-312.0,2020-06-08_blueprint_4a1eb7bb9ca8df26499a32ddc418f82a.json,NULL,NULL,NULL,NULL,1058249,"[1058505,1058754.0000000002,1059004.0000000002,1059253,1059502,1059750]",1059908,1062185,2,2,1,ts-trial-digit-span,,,,,,,,,,,,,,,,,,,,,,,,,,,,,,,
283.00000000000006_59779,6525710,20,Female,NULL,NULL,ts-info-card,313,1063170,0.0-313.0,2020-06-08_blueprint_4a1eb7bb9ca8df26499a32ddc418f82a.json,NULL,NULL,1062912,1063413,NULL,NULL,NULL,NULL,NULL,NULL,NULL,NULL,,,,,,,,,,,,,,,,,,,,,,,,,,,,,,,
283.00000000000006_59779,6525710,20,Female,NULL,NULL,ts-trial,314,1069331,0.0-314.0,2020-06-08_blueprint_4a1eb7bb9ca8df26499a32ddc418f82a.json,NULL,NULL,NULL,NULL,1063415,"[1063920,1064420,1064919,1065419,1065918.0000000002,1066417]",1066572,1067883,1,1,1,ts-trial-spatial-span,,,,,,,,,,,,,,,,,,,,,,,,,,,,,,,
283.00000000000006_59779,6525710,20,Female,NULL,NULL,ts-trial,316,1076357,0.0-316.0,2020-06-08_blueprint_4a1eb7bb9ca8df26499a32ddc418f82a.json,NULL,NULL,NULL,NULL,1070441,"[1070946,1071445,1071944,1072444,1072943,1073443]",1073597,1075303,2,2,1,ts-trial-spatial-span,,,,,,,,,,,,,,,,,,,,,,,,,,,,,,,
283.00000000000006_59779,6525710,20,Female,NULL,NULL,ts-trial,318,1083408,0.0-318.0,2020-06-08_blueprint_4a1eb7bb9ca8df26499a32ddc418f82a.json,NULL,NULL,NULL,NULL,1077492,"[1077997,1078497,1078996,1079495.0000000002,1079994,1080493]",1080649,1082216,0,2,,ts-trial-spatial-span,,,,,,,,,,,,,,,,,,,,,,,,,,,,,,,
283.00000000000006_59779,6525710,20,Female,NULL,NULL,ts-trial,320,1089807,0.0-320.0,2020-06-08_blueprint_4a1eb7bb9ca8df26499a32ddc418f82a.json,NULL,NULL,NULL,NULL,1083890,"[1084395,1084894,1085394,1085893,1086392,1086891]",1087047,1088166,2,1,,ts-trial-spatial-span,,,,,,,,,,,,,,,,,,,,,,,,,,,,,,,
283.00000000000006_59779,6525710,20,Female,NULL,NULL,ts-trial,322,1096949,0.0-322.0,2020-06-08_blueprint_4a1eb7bb9ca8df26499a32ddc418f82a.json,NULL,NULL,NULL,NULL,1091031,"[1091535,1092036,1092535,1093034,1093532,1094033.0000000002]",1094188,1095816,0,0,1,ts-trial-spatial-span,,,,,,,,,,,,,,,,,,,,,,,,,,,,,,,
283.00000000000006_59779,6525710,20,Female,NULL,NULL,ts-trial,324,1103597,0.0-324.0,2020-06-08_blueprint_4a1eb7bb9ca8df26499a32ddc418f82a.json,NULL,NULL,NULL,NULL,1097676,"[1098182,1098682,1099181,1099680,1100179,1100678]",1100836,1102599,2,1,,ts-trial-spatial-span,,,,,,,,,,,,,,,,,,,,,,,,,,,,,,,
283.00000000000006_59779,6525710,20,Female,NULL,NULL,ts-info-card,325,1104100,0.0-325.0,2020-06-08_blueprint_4a1eb7bb9ca8df26499a32ddc418f82a.json,NULL,NULL,1103840,1104341,NULL,NULL,NULL,NULL,NULL,NULL,NULL,NULL,,,,,,,,,,,,,,,,,,,,,,,,,,,,,,,
283.00000000000006_59779,6525710,20,Female,NULL,NULL,ts-trial,326,1108762,0.0-326.0,2020-06-08_blueprint_4a1eb7bb9ca8df26499a32ddc418f82a.json,NULL,NULL,NULL,NULL,1104343,"[1104601,1104850.0000000002,1105099,1105349,1105597,1105846]",1106003,1108871,2,1,,ts-trial-digit-span,,,,,,,,,,,,,,,,,,,,,,,,,,,,,,,
283.00000000000006_59779,6525710,20,Female,NULL,NULL,ts-trial,328,1113930,0.0-328.0,2020-06-08_blueprint_4a1eb7bb9ca8df26499a32ddc418f82a.json,NULL,NULL,NULL,NULL,1109510,"[1109767,1110015,1110265,1110514.0000000002,1110763,1111013]",1111169,1112751,2,2,1,ts-trial-digit-span,,,,,,,,,,,,,,,,,,,,,,,,,,,,,,,
283.00000000000006_59779,6525710,20,Female,NULL,NULL,ts-trial,330,1119532,0.0-330.0,2020-06-08_blueprint_4a1eb7bb9ca8df26499a32ddc418f82a.json,NULL,NULL,NULL,NULL,1115114,"[1115369,1115618,1115868,1116117,1116366,1116616]",1116771,1118424,1,1,1,ts-trial-digit-span,,,,,,,,,,,,,,,,,,,,,,,,,,,,,,,
283.00000000000006_59779,6525710,20,Female,NULL,NULL,ts-trial,332,1124960,0.0-332.0,2020-06-08_blueprint_4a1eb7bb9ca8df26499a32ddc418f82a.json,NULL,NULL,NULL,NULL,1120538,"[1120797,1121046,1121296,1121545,1121795,1122043.0000000002]",1122198,1123953,1,1,1,ts-trial-digit-span,,,,,,,,,,,,,,,,,,,,,,,,,,,,,,,
283.00000000000006_59779,6525710,20,Female,NULL,NULL,ts-trial,334,1129832,0.0-334.0,2020-06-08_blueprint_4a1eb7bb9ca8df26499a32ddc418f82a.json,NULL,NULL,NULL,NULL,1125414,"[1125669,1125918.0000000002,1126168.0000000002,1126417,1126667,1126915]",1127071,1129205,1,0,,ts-trial-digit-span,,,,,,,,,,,,,,,,,,,,,,,,,,,,,,,
283.00000000000006_59779,6525710,20,Female,NULL,NULL,ts-trial,336,1135529,0.0-336.0,2020-06-08_blueprint_4a1eb7bb9ca8df26499a32ddc418f82a.json,NULL,NULL,NULL,NULL,1131110,"[1131364,1131614,1131864,1132113,1132362,1132612]",1132767,1134734,1,1,1,ts-trial-digit-span,,,,,,,,,,,,,,,,,,,,,,,,,,,,,,,
283.00000000000006_59779,6525710,20,Female,NULL,NULL,ts-info-card,337,1139531,0.0-337.0,2020-06-08_blueprint_4a1eb7bb9ca8df26499a32ddc418f82a.json,NULL,NULL,1135771,1139772,NULL,NULL,NULL,NULL,NULL,NULL,NULL,NULL,,,,,,,,,,,,,,,,,,,,,,,,,,,,,,,
283.00000000000006_59779,6525710,20,Female,NULL,NULL,ts-trial,338,1145693,0.0-338.0,2020-06-08_blueprint_4a1eb7bb9ca8df26499a32ddc418f82a.json,NULL,NULL,NULL,NULL,1139774,"[1140280,1140779,1141279,1141777,1142278,1142776]",1142931,1144212,1,2,,ts-trial-spatial-span,,,,,,,,,,,,,,,,,,,,,,,,,,,,,,,
283.00000000000006_59779,6525710,20,Female,NULL,NULL,ts-trial,340,1152763,0.0-340.0,2020-06-08_blueprint_4a1eb7bb9ca8df26499a32ddc418f82a.json,NULL,NULL,NULL,NULL,1146844,"[1147348,1147849,1148348,1148847,1149346,1149846]",1150001,1150893,2,1,,ts-trial-spatial-span,,,,,,,,,,,,,,,,,,,,,,,,,,,,,,,
283.00000000000006_59779,6525710,20,Female,NULL,NULL,ts-trial,342,1159033,0.0-342.0,2020-06-08_blueprint_4a1eb7bb9ca8df26499a32ddc418f82a.json,NULL,NULL,NULL,NULL,1153113,"[1153619,1154117,1154617,1155117,1155615,1156116]",1156271,1157927,1,2,,ts-trial-spatial-span,,,,,,,,,,,,,,,,,,,,,,,,,,,,,,,
283.00000000000006_59779,6525710,20,Female,NULL,NULL,ts-trial,344,1165969,0.0-344.0,2020-06-08_blueprint_4a1eb7bb9ca8df26499a32ddc418f82a.json,NULL,NULL,NULL,NULL,1160051,"[1160556,1161055,1161555,1162054,1162553,1163053]",1163207,1164824,0,2,,ts-trial-spatial-span,,,,,,,,,,,,,,,,,,,,,,,,,,,,,,,
283.00000000000006_59779,6525710,20,Female,NULL,NULL,ts-trial,346,1172554,0.0-346.0,2020-06-08_blueprint_4a1eb7bb9ca8df26499a32ddc418f82a.json,NULL,NULL,NULL,NULL,1166636,"[1167141,1167641,1168140,1168639.0000000002,1169139.0000000002,1169638]",1169792,1170956,2,2,1,ts-trial-spatial-span,,,,,,,,,,,,,,,,,,,,,,,,,,,,,,,
283.00000000000006_59779,6525710,20,Female,NULL,NULL,ts-trial,348,1178883,0.0-348.0,2020-06-08_blueprint_4a1eb7bb9ca8df26499a32ddc418f82a.json,NULL,NULL,NULL,NULL,1172963,"[1173468,1173967,1174466.0000000002,1174967,1175466.0000000002,1175965]",1176120,1177471,2,2,1,ts-trial-spatial-span,,,,,,,,,,,,,,,,,,,,,,,,,,,,,,,
283.00000000000006_59779,6525710,20,Female,NULL,NULL,ts-trial,350,1185511,0.0-350.0,2020-06-08_blueprint_4a1eb7bb9ca8df26499a32ddc418f82a.json,NULL,NULL,NULL,NULL,1179590,"[1180096,1180595,1181095,1181594,1182094,1182593]",1182747,1184188,0,1,,ts-trial-spatial-span,,,,,,,,,,,,,,,,,,,,,,,,,,,,,,,
283.00000000000006_59779,6525710,20,Female,NULL,NULL,ts-info-card,351,1189514,0.0-351.0,2020-06-08_blueprint_4a1eb7bb9ca8df26499a32ddc418f82a.json,NULL,NULL,1185752,1189753,NULL,NULL,NULL,NULL,NULL,NULL,NULL,NULL,,,,,,,,,,,,,,,,,,,,,,,,,,,,,,,
283.00000000000006_59779,6525710,20,Female,NULL,NULL,ts-trial,352,1195675,0.0-352.0,2020-06-08_blueprint_4a1eb7bb9ca8df26499a32ddc418f82a.json,NULL,NULL,NULL,NULL,1189755,"[1190259,1190760,1191259,1191758,1192258,1192757]",1192912,1194843,1,1,1,ts-trial-spatial-rotation,,,,,,,,,,,,,,,,,,,,,,,,,,,,,,,
283.00000000000006_59779,6525710,20,Female,NULL,NULL,ts-trial,354,1202367,0.0-354.0,2020-06-08_blueprint_4a1eb7bb9ca8df26499a32ddc418f82a.json,NULL,NULL,NULL,NULL,1196447,"[1196952,1197452,1197951,1198451,1198950,1199449]",1199604,1201207,2,1,,ts-trial-spatial-rotation,,,,,,,,,,,,,,,,,,,,,,,,,,,,,,,
283.00000000000006_59779,6525710,20,Female,NULL,NULL,ts-trial,356,1209582,0.0-356.0,2020-06-08_blueprint_4a1eb7bb9ca8df26499a32ddc418f82a.json,NULL,NULL,NULL,NULL,1203662,"[1204166,1204666,1205166,1205664,1206165,1206664]",1206818,1209159,1,2,,ts-trial-spatial-rotation,,,,,,,,,,,,,,,,,,,,,,,,,,,,,,,
283.00000000000006_59779,6525710,20,Female,NULL,NULL,ts-trial,358,1216693,0.0-358.0,2020-06-08_blueprint_4a1eb7bb9ca8df26499a32ddc418f82a.json,NULL,NULL,NULL,NULL,1210772,"[1211278,1211777,1212277,1212776,1213276,1213775]",1213929,1215151,0,1,,ts-trial-spatial-rotation,,,,,,,,,,,,,,,,,,,,,,,,,,,,,,,
831.5449999936391_42874,6482872,21,female,NULL,NULL,ts-info-card,4,65796,0.0-4.0,2020-06-08_blueprint_3f1dfe34726f5a3e1bb900a1224d1c53.json,NULL,NULL,66133.915,66642.295,NULL,NULL,NULL,NULL,NULL,NULL,NULL,NULL,,,,,,,,,,,,,,,,,,,,,,,,,,,,,,,
831.5449999936391_42874,6482872,21,female,NULL,NULL,ts-trial,5,71972,0.0-5.0,2020-06-08_blueprint_3f1dfe34726f5a3e1bb900a1224d1c53.json,NULL,NULL,NULL,NULL,66647.655,"[67161.86500000185,67658.3999999857,68154.08499998739,68658.62000000197,69154.27999998792,69658.25999999652]",69810.08,72043.315,0,2,,ts-trial-spatial-rotation,,,,,,,,,,,,,,,,,,,,,,,,,,,,,,,
831.5449999936391_42874,6482872,21,female,NULL,NULL,ts-trial,7,78760,0.0-7.0,2020-06-08_blueprint_3f1dfe34726f5a3e1bb900a1224d1c53.json,NULL,NULL,NULL,NULL,73436.29,"[73946.33999999496,74442.74999998743,74938.42500000028,75442.83499999437,75939.42499998957,76443.48499999614]",76595.585,79292.78,2,0,,ts-trial-spatial-rotation,,,,,,,,,,,,,,,,,,,,,,,,,,,,,,,
831.5449999936391_42874,6482872,21,female,NULL,NULL,ts-trial,9,85497,0.0-9.0,2020-06-08_blueprint_3f1dfe34726f5a3e1bb900a1224d1c53.json,NULL,NULL,NULL,NULL,80177.71,"[80692.26999999955,81187.84500000766,81684.55999999424,82188.05500000599,82684.79999998817,83188.28999999096]",83340.755,86062.505,2,2,1,ts-trial-spatial-rotation,,,,,,,,,,,,,,,,,,,,,,,,,,,,,,,
831.5449999936391_42874,6482872,21,female,NULL,NULL,ts-trial,11,92565,0.0-11.0,2020-06-08_blueprint_3f1dfe34726f5a3e1bb900a1224d1c53.json,NULL,NULL,NULL,NULL,87233.12,"[87741.94000000716,88245.46999999438,88742.10000000312,89245.76499999966,89742.52999998862,90237.43499998818]",90398.565,93223.98,2,0,,ts-trial-spatial-rotation,,,,,,,,,,,,,,,,,,,,,,,,,,,,,,,
831.5449999936391_42874,6482872,21,female,NULL,NULL,ts-trial,13,99277,0.0-13.0,2020-06-08_blueprint_3f1dfe34726f5a3e1bb900a1224d1c53.json,NULL,NULL,NULL,NULL,93946.76,"[94455.93500000541,94959.65999999316,95456.14500000374,95951.75000000745,96456.28499999293,96952.01499998802]",97111.89,99337.685,2,2,1,ts-trial-spatial-rotation,,,,,,,,,,,,,,,,,,,,,,,,,,,,,,,
831.5449999936391_42874,6482872,21,female,NULL,NULL,ts-trial,15,105679,0.0-15.0,2020-06-08_blueprint_3f1dfe34726f5a3e1bb900a1224d1c53.json,NULL,NULL,NULL,NULL,100348.555,"[100857.01999999583,101361.56499999925,101857.39499999909,102353.8750000007,102857.67500000657,103354.1200000036]",103514.165,105460.045,1,1,1,ts-trial-spatial-rotation,,,,,,,,,,,,,,,,,,,,,,,,,,,,,,,
831.5449999936391_42874,6482872,21,female,NULL,NULL,ts-info-card,16,109686,0.0-16.0,2020-06-08_blueprint_3f1dfe34726f5a3e1bb900a1224d1c53.json,NULL,NULL,106527.905,110531.25,NULL,NULL,NULL,NULL,NULL,NULL,NULL,NULL,,,,,,,,,,,,,,,,,,,,,,,,,,,,,,,
831.5449999936391_42874,6482872,21,female,NULL,NULL,ts-trial,17,114371,0.0-17.0,2020-06-08_blueprint_3f1dfe34726f5a3e1bb900a1224d1c53.json,NULL,NULL,NULL,NULL,110537.525,"[110794.72499998519,111043.22500000126,111299.06499999925,111547.88500000723,111795.69999998785,112043.43499999959]",112203.465,NULL,NULL,2,NULL,ts-trial-digit-span,,,,,,,,,,,,,,,,,,,,,,,,,,,,,,,
831.5449999936391_42874,6482872,21,female,NULL,NULL,ts-trial,19,119529,0.0-19.0,2020-06-08_blueprint_3f1dfe34726f5a3e1bb900a1224d1c53.json,NULL,NULL,NULL,NULL,115696.025,"[115956.61500000278,116204.42500000354,116459.73999999114,116707.33999999356,116955.24999999907,117202.98999999068]",117363.11,NULL,NULL,0,NULL,ts-trial-digit-span,,,,,,,,,,,,,,,,,,,,,,,,,,,,,,,
831.5449999936391_42874,6482872,21,female,NULL,NULL,ts-trial,21,125298,0.0-21.0,2020-06-08_blueprint_3f1dfe34726f5a3e1bb900a1224d1c53.json,NULL,NULL,NULL,NULL,121480.05,"[121739.80999999912,121986.75499999081,122236.23000000953,122484.3899999978,122740.14499998884,122988.36499999743]",123140.28,NULL,NULL,2,NULL,ts-trial-digit-span,,,,,,,,,,,,,,,,,,,,,,,,,,,,,,,
831.5449999936391_42874,6482872,21,female,NULL,NULL,ts-trial,23,130835,0.0-23.0,2020-06-08_blueprint_3f1dfe34726f5a3e1bb900a1224d1c53.json,NULL,NULL,NULL,NULL,127012.28,"[127277.13999999105,127525.9500000102,127773.66499998607,128021.58000000054,128269.33000001009,128518.14000000013]",128678.1,NULL,NULL,1,NULL,ts-trial-digit-span,,,,,,,,,,,,,,,,,,,,,,,,,,,,,,,
831.5449999936391_42874,6482872,21,female,NULL,NULL,ts-trial,25,136261,0.0-25.0,2020-06-08_blueprint_3f1dfe34726f5a3e1bb900a1224d1c53.json,NULL,NULL,NULL,NULL,132438.115,"[132695.1800000097,132943.03999998374,133198.2999999891,133441.48999999743,133695.70000001113,133943.12999999966]",134103.05,NULL,NULL,1,NULL,ts-trial-digit-span,,,,,,,,,,,,,,,,,,,,,,,,,,,,,,,
831.5449999936391_42874,6482872,21,female,NULL,NULL,ts-trial,27,141878,0.0-27.0,2020-06-08_blueprint_3f1dfe34726f5a3e1bb900a1224d1c53.json,NULL,NULL,NULL,NULL,138052.275,"[138312.18000000808,138560.91500000912,138808.6750000075,139056.58000000403,139312.37500000861,139561.14499998512]",139712.925,142635.085,0,0,1,ts-trial-digit-span,,,,,,,,,,,,,,,,,,,,,,,,,,,,,,,
831.5449999936391_42874,6482872,21,female,NULL,NULL,ts-info-card,28,142387,0.0-28.0,2020-06-08_blueprint_3f1dfe34726f5a3e1bb900a1224d1c53.json,NULL,NULL,142726.545,143233.315,NULL,NULL,NULL,NULL,NULL,NULL,NULL,NULL,,,,,,,,,,,,,,,,,,,,,,,,,,,,,,,
831.5449999936391_42874,6482872,21,female,NULL,NULL,ts-trial,29,148569,0.0-29.0,2020-06-08_blueprint_3f1dfe34726f5a3e1bb900a1224d1c53.json,NULL,NULL,NULL,NULL,143237.34,"[143745.88500001119,144249.55000000773,144746.24000000767,145241.81999999564,145746.530000004,146242.1800000011]",146402.485,NULL,NULL,1,NULL,ts-trial-spatial-rotation,,,,,,,,,,,,,,,,,,,,,,,,,,,,,,,
831.5449999936391_42874,6482872,21,female,NULL,NULL,ts-trial,31,155710,0.0-31.0,2020-06-08_blueprint_3f1dfe34726f5a3e1bb900a1224d1c53.json,NULL,NULL,NULL,NULL,150382.09,"[150890.80500000273,151394.88999999594,151890.87999999174,152387.51500000944,152891.26499998383,153387.80999998562]",153547.815,155773.405,0,0,1,ts-trial-spatial-rotation,,,,,,,,,,,,,,,,,,,,,,,,,,,,,,,
831.5449999936391_42874,6482872,21,female,NULL,NULL,ts-trial,33,162153,0.0-33.0,2020-06-08_blueprint_3f1dfe34726f5a3e1bb900a1224d1c53.json,NULL,NULL,NULL,NULL,156839.84,"[157347.94999999576,157846.114999993,158349.78499999852,158846.2850000069,159350.03000000142,159846.53999999864]",159998.485,161768.52,1,1,1,ts-trial-spatial-rotation,,,,,,,,,,,,,,,,,,,,,,,,,,,,,,,
831.5449999936391_42874,6482872,21,female,NULL,NULL,ts-trial,35,169356,0.0-35.0,2020-06-08_blueprint_3f1dfe34726f5a3e1bb900a1224d1c53.json,NULL,NULL,NULL,NULL,164034.545,"[164544.15000000154,165047.65500000212,165544.43000000902,166039.92000001017,166544.75999998976,167040.46499999822]",167200.195,168498.51,1,1,1,ts-trial-spatial-rotation,,,,,,,,,,,,,,,,,,,,,,,,,,,,,,,
831.5449999936391_42874,6482872,21,female,NULL,NULL,ts-trial,37,175741,0.0-37.0,2020-06-08_blueprint_3f1dfe34726f5a3e1bb900a1224d1c53.json,NULL,NULL,NULL,NULL,170424.365,"[170937.32500000624,171433.8599999901,171937.62000001152,172434.1349999886,172930.01499999082,173434.4099999871]",173585.965,176436.55,2,2,1,ts-trial-spatial-rotation,,,,,,,,,,,,,,,,,,,,,,,,,,,,,,,
831.5449999936391_42874,6482872,21,female,NULL,NULL,ts-trial,39,182782,0.0-39.0,2020-06-08_blueprint_3f1dfe34726f5a3e1bb900a1224d1c53.json,NULL,NULL,NULL,NULL,177462.425,"[177971.1449999886,178475.54499999387,178971.28999998677,179467.86999999313,179971.54999998747,180468.12999999383]",180628.125,NULL,NULL,0,NULL,ts-trial-spatial-rotation,,,,,,,,,,,,,,,,,,,,,,,,,,,,,,,
831.5449999936391_42874,6482872,21,female,NULL,NULL,ts-trial,41,190048,0.0-41.0,2020-06-08_blueprint_3f1dfe34726f5a3e1bb900a1224d1c53.json,NULL,NULL,NULL,NULL,184730.21,"[185236.10000000917,185741.18499999167,186236.68500001077,186741.41499999678,187237.54500001087,187733.46499999752]",187893.225,190055.56,2,1,,ts-trial-spatial-rotation,,,,,,,,,,,,,,,,,,,,,,,,,,,,,,,
831.5449999936391_42874,6482872,21,female,NULL,NULL,ts-info-card,42,190558,0.0-42.0,2020-06-08_blueprint_3f1dfe34726f5a3e1bb900a1224d1c53.json,NULL,NULL,190899.335,191406.55,NULL,NULL,NULL,NULL,NULL,NULL,NULL,NULL,,,,,,,,,,,,,,,,,,,,,,,,,,,,,,,
831.5449999936391_42874,6482872,21,female,NULL,NULL,ts-trial,43,196746,0.0-43.0,2020-06-08_blueprint_3f1dfe34726f5a3e1bb900a1224d1c53.json,NULL,NULL,NULL,NULL,191411.24,"[191926.79500000668,192423.13499999,192927.00999998488,193423.4899999865,193919.31999998633,194415.3599999845]",194583.995,196889.625,1,1,1,ts-trial-spatial-span,,,,,,,,,,,,,,,,,,,,,,,,,,,,,,,
251.67000001238193_90175,6532944,20,Female,NULL,NULL,ts-info-card,4,90428,0.0-4.0,2020-06-08_blueprint_c1ca12fa12d72de21f86868142d10f50.json,NULL,NULL,90177.945,90680.9,NULL,NULL,NULL,NULL,NULL,NULL,NULL,NULL,,,,,,,,,,,,,,,,,,,,,,,,,,,,,,,
831.5449999936391_42874,6482872,21,female,NULL,NULL,ts-trial,45,203972,0.0-45.0,2020-06-08_blueprint_3f1dfe34726f5a3e1bb900a1224d1c53.json,NULL,NULL,NULL,NULL,198651.485,"[199160.40500000236,199665.0549999904,200160.62000000966,200657.30500000063,201160.8750000014,201657.60999999475]",201817.39,204651.67,1,0,,ts-trial-spatial-span,,,,,,,,,,,,,,,,,,,,,,,,,,,,,,,
251.67000001238193_90175,6532944,20,Female,NULL,NULL,ts-trial,5,95095,0.0-5.0,2020-06-08_blueprint_c1ca12fa12d72de21f86868142d10f50.json,NULL,NULL,NULL,NULL,90683.355,"[90938.72000000556,91192.79500000994,91442.0700000046,91690.96000000718,91940.60500001069,92190.01000000571]",92342.025,94829.44,1,1,1,ts-trial-digit-span,,,,,,,,,,,,,,,,,,,,,,,,,,,,,,,
251.67000001238193_90175,6532944,20,Female,NULL,NULL,ts-trial,7,100181,0.0-7.0,2020-06-08_blueprint_c1ca12fa12d72de21f86868142d10f50.json,NULL,NULL,NULL,NULL,95771.31,"[96027.68000001379,96277.46000001207,96527.4700000009,96779.25500000129,97028.22000000742,97276.23000000312]",97432.825,99947.705,2,2,1,ts-trial-digit-span,,,,,,,,,,,,,,,,,,,,,,,,,,,,,,,
831.5449999936391_42874,6482872,21,female,NULL,NULL,ts-trial,47,211117,0.0-47.0,2020-06-08_blueprint_3f1dfe34726f5a3e1bb900a1224d1c53.json,NULL,NULL,NULL,NULL,205791.12,"[206298.04999998305,206802.67499998445,207298.32500001066,207794.9099999969,208298.60000000917,208795.1100000064]",208955.205,210852.215,2,2,1,ts-trial-spatial-span,,,,,,,,,,,,,,,,,,,,,,,,,,,,,,,
251.67000001238193_90175,6532944,20,Female,NULL,NULL,ts-trial,9,105195,0.0-9.0,2020-06-08_blueprint_c1ca12fa12d72de21f86868142d10f50.json,NULL,NULL,NULL,NULL,100784.025,"[101041.95500000787,101293.0350000097,101542.12500000722,101791.65000001376,102035.78500000003,102290.44000001159]",102445.36,NULL,NULL,0,NULL,ts-trial-digit-span,,,,,,,,,,,,,,,,,,,,,,,,,,,,,,,
831.5449999936391_42874,6482872,21,female,NULL,NULL,ts-trial,49,218299,0.0-49.0,2020-06-08_blueprint_3f1dfe34726f5a3e1bb900a1224d1c53.json,NULL,NULL,NULL,NULL,212974.81,"[213484.68500000308,213980.275000009,214484.82499999227,214980.504999985,215485.0649999862,215980.74500000803]",216140.73,218395.085,1,1,1,ts-trial-spatial-span,,,,,,,,,,,,,,,,,,,,,,,,,,,,,,,
251.67000001238193_90175,6532944,20,Female,NULL,NULL,ts-trial,11,110497,0.0-11.0,2020-06-08_blueprint_c1ca12fa12d72de21f86868142d10f50.json,NULL,NULL,NULL,NULL,106087.055,"[106343.51000000606,106592.4750000122,106842.24000001268,107094.09000001324,107342.13000000454,107590.41000000434]",107748.375,109589.58,0,2,,ts-trial-digit-span,,,,,,,,,,,,,,,,,,,,,,,,,,,,,,,
831.5449999936391_42874,6482872,21,female,NULL,NULL,ts-trial,51,225436,0.0-51.0,2020-06-08_blueprint_3f1dfe34726f5a3e1bb900a1224d1c53.json,NULL,NULL,NULL,NULL,220108.165,"[220625.63999998383,221121.61500001093,221618.2850000041,222121.82999998913,222618.51000000024,223114.12499999278]",223274.11,225860.37,1,2,,ts-trial-spatial-span,,,,,,,,,,,,,,,,,,,,,,,,,,,,,,,
251.67000001238193_90175,6532944,20,Female,NULL,NULL,ts-trial,13,115682,0.0-13.0,2020-06-08_blueprint_c1ca12fa12d72de21f86868142d10f50.json,NULL,NULL,NULL,NULL,111273.875,"[111527.83500000078,111782.3650000064,112032.0100000099,112281.26500001235,112530.75500001432,112780.20500000275]",112931.595,115664.395,2,1,,ts-trial-digit-span,,,,,,,,,,,,,,,,,,,,,,,,,,,,,,,
251.67000001238193_90175,6532944,20,Female,NULL,NULL,ts-trial,15,120876,0.0-15.0,2020-06-08_blueprint_c1ca12fa12d72de21f86868142d10f50.json,NULL,NULL,NULL,NULL,116466.365,"[116721.26500000013,116971.96500000427,117221.72500001034,117471.44000000844,117723.45000000496,117968.55500001402]",118122.57,120053.525,1,2,,ts-trial-digit-span,,,,,,,,,,,,,,,,,,,,,,,,,,,,,,,
831.5449999936391_42874,6482872,21,female,NULL,NULL,ts-trial,53,232423,0.0-53.0,2020-06-08_blueprint_3f1dfe34726f5a3e1bb900a1224d1c53.json,NULL,NULL,NULL,NULL,227100.85,"[227611.78999999538,228107.36999998335,228611.91499998677,229107.56999999285,229604.32499999297,230107.80999998678]",230259.855,232277.33,1,1,1,ts-trial-spatial-span,,,,,,,,,,,,,,,,,,,,,,,,,,,,,,,
251.67000001238193_90175,6532944,20,Female,NULL,NULL,ts-trial,17,126567,0.0-17.0,2020-06-08_blueprint_c1ca12fa12d72de21f86868142d10f50.json,NULL,NULL,NULL,NULL,122157.89,"[122413.85000001173,122666.58500001358,122915.91500000504,123159.98500000569,123409.84500000195,123659.47500000766]",123816.715,126607.545,0,0,1,ts-trial-digit-span,,,,,,,,,,,,,,,,,,,,,,,,,,,,,,,
831.5449999936391_42874,6482872,21,female,NULL,NULL,ts-trial,55,238840,0.0-55.0,2020-06-08_blueprint_3f1dfe34726f5a3e1bb900a1224d1c53.json,NULL,NULL,NULL,NULL,233511.615,"[234020.755000005,234525.35499999067,235021.14999998594,235517.54999998957,236021.27500000643,236517.88999998826]",236677.785,238807.36,1,2,,ts-trial-spatial-span,,,,,,,,,,,,,,,,,,,,,,,,,,,,,,,
251.67000001238193_90175,6532944,20,Female,NULL,NULL,ts-trial,19,132191,0.0-19.0,2020-06-08_blueprint_c1ca12fa12d72de21f86868142d10f50.json,NULL,NULL,NULL,NULL,127782.075,"[128041.8750000099,128291.88000000431,128538.86500000954,128784.95000000112,129038.89500000514,129284.69500000938]",129441.385,131674.47,2,2,1,ts-trial-digit-span,,,,,,,,,,,,,,,,,,,,,,,,,,,,,,,
251.67000001238193_90175,6532944,20,Female,NULL,NULL,ts-info-card,20,132696,0.0-20.0,2020-06-08_blueprint_c1ca12fa12d72de21f86868142d10f50.json,NULL,NULL,132444.88,132948.05,NULL,NULL,NULL,NULL,NULL,NULL,NULL,NULL,,,,,,,,,,,,,,,,,,,,,,,,,,,,,,,
831.5449999936391_42874,6482872,21,female,NULL,NULL,ts-trial,57,245305,0.0-57.0,2020-06-08_blueprint_3f1dfe34726f5a3e1bb900a1224d1c53.json,NULL,NULL,NULL,NULL,239984.475,"[240494.62499999208,240990.214999998,241494.86499998602,241990.44999998296,242495.00999998418,242990.63499999465]",243142.595,245288.23,0,1,,ts-trial-spatial-span,,,,,,,,,,,,,,,,,,,,,,,,,,,,,,,
251.67000001238193_90175,6532944,20,Female,NULL,NULL,ts-trial,21,138857,0.0-21.0,2020-06-08_blueprint_c1ca12fa12d72de21f86868142d10f50.json,NULL,NULL,NULL,NULL,132950.03,"[133454.72500000324,133957.35500000592,134453.00500000303,134956.7350000143,135452.12000000174,135953.2850000105]",136106.705,NULL,NULL,0,NULL,ts-trial-spatial-span,,,,,,,,,,,,,,,,,,,,,,,,,,,,,,,
831.5449999936391_42874,6482872,21,female,NULL,NULL,ts-info-card,58,249312,0.0-58.0,2020-06-08_blueprint_3f1dfe34726f5a3e1bb900a1224d1c53.json,NULL,NULL,246156.045,250159.875,NULL,NULL,NULL,NULL,NULL,NULL,NULL,NULL,,,,,,,,,,,,,,,,,,,,,,,,,,,,,,,
831.5449999936391_42874,6482872,21,female,NULL,NULL,ts-trial,59,253987,0.0-59.0,2020-06-08_blueprint_3f1dfe34726f5a3e1bb900a1224d1c53.json,NULL,NULL,NULL,NULL,250163.275,"[250424.26500000875,250672.4899999972,250920.28500000015,251168.03999998956,251416.26999998698,251672.70999998436]",251824.58,NULL,NULL,1,NULL,ts-trial-digit-span,,,,,,,,,,,,,,,,,,,,,,,,,,,,,,,
251.67000001238193_90175,6532944,20,Female,NULL,NULL,ts-trial,23,145471,0.0-23.0,2020-06-08_blueprint_c1ca12fa12d72de21f86868142d10f50.json,NULL,NULL,NULL,NULL,139558.405,"[140063.62500000978,140563.79000000015,141060.9800000093,141561.8850000028,142060.1500000048,142560.02000000444]",142719.825,144507.625,1,1,1,ts-trial-spatial-span,,,,,,,,,,,,,,,,,,,,,,,,,,,,,,,
831.5449999936391_42874,6482872,21,female,NULL,NULL,ts-trial,61,259708,0.0-61.0,2020-06-08_blueprint_3f1dfe34726f5a3e1bb900a1224d1c53.json,NULL,NULL,NULL,NULL,255883.61,"[256144.9750000029,256393.00000001094,256641.7150000052,256889.5049999992,257145.3099999926,257393.34000000963]",257546.06,259027.12,1,1,1,ts-trial-digit-span,,,,,,,,,,,,,,,,,,,,,,,,,,,,,,,
251.67000001238193_90175,6532944,20,Female,NULL,NULL,ts-trial,25,152722,0.0-25.0,2020-06-08_blueprint_c1ca12fa12d72de21f86868142d10f50.json,NULL,NULL,NULL,NULL,146811.41,"[147319.13500001247,147819.71000001067,148318.8000000082,148817.8600000101,149317.9300000047,149816.7500000127]",149971.865,151962.05,2,2,1,ts-trial-spatial-span,,,,,,,,,,,,,,,,,,,,,,,,,,,,,,,
831.5449999936391_42874,6482872,21,female,NULL,NULL,ts-trial,63,265157,0.0-63.0,2020-06-08_blueprint_3f1dfe34726f5a3e1bb900a1224d1c53.json,NULL,NULL,NULL,NULL,261332.49,"[261594.19000000344,261842.47000000323,262090.33499998623,262338.064999989,262586.8649999902,262834.52499998384]",262994.67,265364.095,2,1,,ts-trial-digit-span,,,,,,,,,,,,,,,,,,,,,,,,,,,,,,,
251.67000001238193_90175,6532944,20,Female,NULL,NULL,ts-trial,27,159841,0.0-27.0,2020-06-08_blueprint_c1ca12fa12d72de21f86868142d10f50.json,NULL,NULL,NULL,NULL,153932.955,"[154437.1300000057,154936.8800000084,155438.18000001193,155935.32000000414,156439.78500000958,156939.15500000003]",157090.935,159944.98,1,1,1,ts-trial-spatial-span,,,,,,,,,,,,,,,,,,,,,,,,,,,,,,,
831.5449999936391_42874,6482872,21,female,NULL,NULL,ts-trial,65,270686,0.0-65.0,2020-06-08_blueprint_3f1dfe34726f5a3e1bb900a1224d1c53.json,NULL,NULL,NULL,NULL,266862.19,"[267123.265000002,267371.11999999615,267619.9750000087,267867.65000000014,268115.46500000986,268371.3399999833]",268524.35,270100.64,1,1,1,ts-trial-digit-span,,,,,,,,,,,,,,,,,,,,,,,,,,,,,,,
831.5449999936391_42874,6482872,21,female,NULL,NULL,ts-trial,67,276346,0.0-67.0,2020-06-08_blueprint_3f1dfe34726f5a3e1bb900a1224d1c53.json,NULL,NULL,NULL,NULL,272525.795,"[272787.14500000933,273034.82000000076,273282.6350000105,273531.6149999853,273779.2799999879,274035.0899999903]",274187.09,276180.835,2,2,1,ts-trial-digit-span,,,,,,,,,,,,,,,,,,,,,,,,,,,,,,,
251.67000001238193_90175,6532944,20,Female,NULL,NULL,ts-trial,29,166482,0.0-29.0,2020-06-08_blueprint_c1ca12fa12d72de21f86868142d10f50.json,NULL,NULL,NULL,NULL,160574.725,"[161078.6550000048,161578.65000001038,162082.90000000852,162577.08000000275,163076.22500001162,163576.08000001346]",163730.97,NULL,NULL,0,NULL,ts-trial-spatial-span,,,,,,,,,,,,,,,,,,,,,,,,,,,,,,,
831.5449999936391_42874,6482872,21,female,NULL,NULL,ts-trial,69,281971,0.0-69.0,2020-06-08_blueprint_3f1dfe34726f5a3e1bb900a1224d1c53.json,NULL,NULL,NULL,NULL,278150.325,"[278411.15999998874,278660.3400000022,278908.04000000935,279155.9300000081,279403.2399999851,279653.0050000001]",279812.81,282030.455,2,2,1,ts-trial-digit-span,,,,,,,,,,,,,,,,,,,,,,,,,,,,,,,
831.5449999936391_42874,6482872,21,female,NULL,NULL,ts-info-card,70,282481,0.0-70.0,2020-06-08_blueprint_3f1dfe34726f5a3e1bb900a1224d1c53.json,NULL,NULL,282826.275,283333.11,NULL,NULL,NULL,NULL,NULL,NULL,NULL,NULL,,,,,,,,,,,,,,,,,,,,,,,,,,,,,,,
251.67000001238193_90175,6532944,20,Female,NULL,NULL,ts-trial,31,173030,0.0-31.0,2020-06-08_blueprint_c1ca12fa12d72de21f86868142d10f50.json,NULL,NULL,NULL,NULL,167119.77,"[167626.64000000223,168123.60500000068,168625.36000000546,169124.26000001142,169621.7450000113,170121.30500000785]",170276.025,NULL,NULL,2,NULL,ts-trial-spatial-span,,,,,,,,,,,,,,,,,,,,,,,,,,,,,,,
251.67000001238193_90175,6532944,20,Female,NULL,NULL,ts-info-card,32,173534,0.0-32.0,2020-06-08_blueprint_c1ca12fa12d72de21f86868142d10f50.json,NULL,NULL,173283.215,173785.12,NULL,NULL,NULL,NULL,NULL,NULL,NULL,NULL,,,,,,,,,,,,,,,,,,,,,,,,,,,,,,,
831.5449999936391_42874,6482872,21,female,NULL,NULL,ts-trial,71,288661,0.0-71.0,2020-06-08_blueprint_3f1dfe34726f5a3e1bb900a1224d1c53.json,NULL,NULL,NULL,NULL,283336.52,"[283845.5350000004,284349.06000000774,284845.7150000031,285341.4500000072,285846.0199999972,286341.5999999852]",286502.515,288207.32,1,1,1,ts-trial-spatial-rotation,,,,,,,,,,,,,,,,,,,,,,,,,,,,,,,
251.67000001238193_90175,6532944,20,Female,NULL,NULL,ts-trial,33,179695,0.0-33.0,2020-06-08_blueprint_c1ca12fa12d72de21f86868142d10f50.json,NULL,NULL,NULL,NULL,173787.1,"[174290.9900000086,174792.65500001202,175290.7000000123,175789.39500001434,176293.82000000624,176790.75000000012]",176943.665,179667.6,0,2,,ts-trial-spatial-rotation,,,,,,,,,,,,,,,,,,,,,,,,,,,,,,,
831.5449999936391_42874,6482872,21,female,NULL,NULL,ts-trial,73,295549,0.0-73.0,2020-06-08_blueprint_3f1dfe34726f5a3e1bb900a1224d1c53.json,NULL,NULL,NULL,NULL,290224.84,"[290734.90499999025,291230.55499998736,291735.004999995,292230.66500001005,292735.1600000111,293230.87999998825]",293390.935,295320.35,1,1,1,ts-trial-spatial-rotation,,,,,,,,,,,,,,,,,,,,,,,,,,,,,,,
251.67000001238193_90175,6532944,20,Female,NULL,NULL,ts-trial,35,186347,0.0-35.0,2020-06-08_blueprint_c1ca12fa12d72de21f86868142d10f50.json,NULL,NULL,NULL,NULL,180440.58,"[180949.18000001053,181444.0050000121,181943.45000000612,182443.99500000873,182943.9900000143,183442.03000000562]",183596.3,185402.115,1,1,1,ts-trial-spatial-rotation,,,,,,,,,,,,,,,,,,,,,,,,,,,,,,,
831.5449999936391_42874,6482872,21,female,NULL,NULL,ts-trial,75,302607,0.0-75.0,2020-06-08_blueprint_3f1dfe34726f5a3e1bb900a1224d1c53.json,NULL,NULL,NULL,NULL,297290.475,"[297800.350000005,298303.85999998543,298800.40000000736,299303.97999999695,299800.6250000035,300295.769999997]",300456.975,302178.24,1,1,1,ts-trial-spatial-rotation,,,,,,,,,,,,,,,,,,,,,,,,,,,,,,,
251.67000001238193_90175,6532944,20,Female,NULL,NULL,ts-trial,37,193268,0.0-37.0,2020-06-08_blueprint_c1ca12fa12d72de21f86868142d10f50.json,NULL,NULL,NULL,NULL,187355.08,"[187865.87000000873,188365.29500001052,188861.43000000448,189360.4100000084,189861.21500001173,190358.94499999995]",190512.805,192930.21,1,2,,ts-trial-spatial-rotation,,,,,,,,,,,,,,,,,,,,,,,,,,,,,,,
831.5449999936391_42874,6482872,21,female,NULL,NULL,ts-trial,77,308929,0.0-77.0,2020-06-08_blueprint_3f1dfe34726f5a3e1bb900a1224d1c53.json,NULL,NULL,NULL,NULL,303604.345,"[304112.98999999417,304617.61499999557,305112.52999998396,305609.0400000103,306113.320000004,306609.8650000058]",306769.72,309058.43,0,0,1,ts-trial-spatial-rotation,,,,,,,,,,,,,,,,,,,,,,,,,,,,,,,
251.67000001238193_90175,6532944,20,Female,NULL,NULL,ts-trial,39,199908,0.0-39.0,2020-06-08_blueprint_c1ca12fa12d72de21f86868142d10f50.json,NULL,NULL,NULL,NULL,194000.01,"[194508.9050000097,195008.41500000388,195502.93500001135,196006.41000000178,196506.40000001295,197005.56500001403]",197156.225,199412.145,1,1,1,ts-trial-spatial-rotation,,,,,,,,,,,,,,,,,,,,,,,,,,,,,,,
831.5449999936391_42874,6482872,21,female,NULL,NULL,ts-trial,79,315726,0.0-79.0,2020-06-08_blueprint_3f1dfe34726f5a3e1bb900a1224d1c53.json,NULL,NULL,NULL,NULL,310405.245,"[310921.67999999947,311417.51999998814,311913.84500000277,312417.7149999887,312914.8799999966,313409.68499999144]",313571.365,315772.55,1,1,1,ts-trial-spatial-rotation,,,,,,,,,,,,,,,,,,,,,,,,,,,,,,,
251.67000001238193_90175,6532944,20,Female,NULL,NULL,ts-trial,41,206706,0.0-41.0,2020-06-08_blueprint_c1ca12fa12d72de21f86868142d10f50.json,NULL,NULL,NULL,NULL,200798.695,"[201307.14000000444,201803.32000000635,202301.96500000602,202801.07000000135,203300.74500000046,203800.11000001105]",203954.785,205614.155,1,1,1,ts-trial-spatial-rotation,,,,,,,,,,,,,,,,,,,,,,,,,,,,,,,
831.5449999936391_42874,6482872,21,female,NULL,NULL,ts-trial,81,322334,0.0-81.0,2020-06-08_blueprint_3f1dfe34726f5a3e1bb900a1224d1c53.json,NULL,NULL,NULL,NULL,317009.865,"[317519.20999999857,318022.65500000794,318519.3699999945,319014.92499999586,319519.6200000064,320014.56999999937]",320175.745,322673.55,1,1,1,ts-trial-spatial-rotation,,,,,,,,,,,,,,,,,,,,,,,,,,,,,,,
251.67000001238193_90175,6532944,20,Female,NULL,NULL,ts-trial,43,213341,0.0-43.0,2020-06-08_blueprint_c1ca12fa12d72de21f86868142d10f50.json,NULL,NULL,NULL,NULL,207432.55,"[207936.71500000346,208436.8400000094,208941.56000000658,209438.87000001268,209939.2200000002,210438.07500001276]",210587.835,212559.1,1,2,,ts-trial-spatial-rotation,,,,,,,,,,,,,,,,,,,,,,,,,,,,,,,
831.5449999936391_42874,6482872,21,female,NULL,NULL,ts-trial,83,329184,0.0-83.0,2020-06-08_blueprint_3f1dfe34726f5a3e1bb900a1224d1c53.json,NULL,NULL,NULL,NULL,323858.945,"[324367.8249999939,324872.53500000224,325368.14000000595,325864.74499999895,326368.3899999887,326865.140000009]",327024.96,328875.24,0,0,1,ts-trial-spatial-rotation,,,,,,,,,,,,,,,,,,,,,,,,,,,,,,,
831.5449999936391_42874,6482872,21,female,NULL,NULL,ts-info-card,84,329695,0.0-84.0,2020-06-08_blueprint_3f1dfe34726f5a3e1bb900a1224d1c53.json,NULL,NULL,330039.02,330546.61,NULL,NULL,NULL,NULL,NULL,NULL,NULL,NULL,,,,,,,,,,,,,,,,,,,,,,,,,,,,,,,
251.67000001238193_90175,6532944,20,Female,NULL,NULL,ts-trial,45,220442,0.0-45.0,2020-06-08_blueprint_c1ca12fa12d72de21f86868142d10f50.json,NULL,NULL,NULL,NULL,214533.3,"[215041.73500000616,215537.96500001044,216038.39000000153,216535.4750000115,217035.70000000764,217537.15500001272]",217689.11,220210.89,0,0,1,ts-trial-spatial-rotation,,,,,,,,,,,,,,,,,,,,,,,,,,,,,,,
251.67000001238193_90175,6532944,20,Female,NULL,NULL,ts-info-card,46,220949,0.0-46.0,2020-06-08_blueprint_c1ca12fa12d72de21f86868142d10f50.json,NULL,NULL,220693.295,221198.775,NULL,NULL,NULL,NULL,NULL,NULL,NULL,NULL,,,,,,,,,,,,,,,,,,,,,,,,,,,,,,,
831.5449999936391_42874,6482872,21,female,NULL,NULL,ts-trial,85,334369,0.0-85.0,2020-06-08_blueprint_3f1dfe34726f5a3e1bb900a1224d1c53.json,NULL,NULL,NULL,NULL,330550.24,"[330810.32499999856,331058.2399999839,331305.98000000464,331554.75000001024,331810.59000000823,332058.48000000697]",332209.96,334724.64,1,2,,ts-trial-digit-span,,,,,,,,,,,,,,,,,,,,,,,,,,,,,,,
251.67000001238193_90175,6532944,20,Female,NULL,NULL,ts-trial,47,227111,0.0-47.0,2020-06-08_blueprint_c1ca12fa12d72de21f86868142d10f50.json,NULL,NULL,NULL,NULL,221200.46,"[221705.55000001332,222204.96500001173,222708.50500000233,223207.55500000087,223707.18000001216,224201.6100000037]",224358.405,226879.5,2,2,1,ts-trial-spatial-span,,,,,,,,,,,,,,,,,,,,,,,,,,,,,,,
831.5449999936391_42874,6482872,21,female,NULL,NULL,ts-trial,87,339569,0.0-87.0,2020-06-08_blueprint_3f1dfe34726f5a3e1bb900a1224d1c53.json,NULL,NULL,NULL,NULL,335741.965,"[336002.7950000076,336251.185000001,336500.1099999936,336747.7399999916,336995.6349999993,337251.48499998613]",337410.92,339949.7,2,2,1,ts-trial-digit-span,,,,,,,,,,,,,,,,,,,,,,,,,,,,,,,
251.67000001238193_90175,6532944,20,Female,NULL,NULL,ts-trial,49,234124,0.0-49.0,2020-06-08_blueprint_c1ca12fa12d72de21f86868142d10f50.json,NULL,NULL,NULL,NULL,228214.305,"[228723.1150000007,229217.12500001013,229716.91000000283,230220.7250000065,230719.42000000854,231215.54500001366]",231370.84,232837.7,0,1,,ts-trial-spatial-span,,,,,,,,,,,,,,,,,,,,,,,,,,,,,,,
831.5449999936391_42874,6482872,21,female,NULL,NULL,ts-trial,89,344627,0.0-89.0,2020-06-08_blueprint_3f1dfe34726f5a3e1bb900a1224d1c53.json,NULL,NULL,NULL,NULL,340807.73,"[341068.809999997,341316.5600000066,341565.50500000594,341813.1599999906,342069.0949999844,342316.8000000005]",342469.645,345262.815,1,0,,ts-trial-digit-span,,,,,,,,,,,,,,,,,,,,,,,,,,,,,,,
831.5449999936391_42874,6482872,21,female,NULL,NULL,ts-trial,91,349988,0.0-91.0,2020-06-08_blueprint_3f1dfe34726f5a3e1bb900a1224d1c53.json,NULL,NULL,NULL,NULL,346160.29,"[346421.55999998795,346670.58999999426,346917.54999998375,347165.97000000183,347421.8249999976,347670.7549999992]",347822.585,349801.65,2,2,1,ts-trial-digit-span,,,,,,,,,,,,,,,,,,,,,,,,,,,,,,,
251.67000001238193_90175,6532944,20,Female,NULL,NULL,ts-trial,51,241265,0.0-51.0,2020-06-08_blueprint_c1ca12fa12d72de21f86868142d10f50.json,NULL,NULL,NULL,NULL,235350.51,"[235854.27500000515,236357.9150000005,236852.88000000583,237356.1350000091,237854.78500000318,238354.21000000497]",238511.585,241386.33,1,1,1,ts-trial-spatial-span,,,,,,,,,,,,,,,,,,,,,,,,,,,,,,,
831.5449999936391_42874,6482872,21,female,NULL,NULL,ts-trial,93,355461,0.0-93.0,2020-06-08_blueprint_3f1dfe34726f5a3e1bb900a1224d1c53.json,NULL,NULL,NULL,NULL,351634.94,"[351896.13499998813,352143.9749999845,352391.810000001,352640.6399999978,352896.32999998867,353144.22499999637]",353296.22,355217.855,0,0,1,ts-trial-digit-span,,,,,,,,,,,,,,,,,,,,,,,,,,,,,,,
251.67000001238193_90175,6532944,20,Female,NULL,NULL,ts-trial,53,247917,0.0-53.0,2020-06-08_blueprint_c1ca12fa12d72de21f86868142d10f50.json,NULL,NULL,NULL,NULL,242007.67,"[242516.1950000038,243015.7950000139,243514.90000000922,244011.11000000674,244511.40000000305,245009.63500000944]",245164.135,247261.815,2,2,1,ts-trial-spatial-span,,,,,,,,,,,,,,,,,,,,,,,,,,,,,,,
831.5449999936391_42874,6482872,21,female,NULL,NULL,ts-trial,95,360360,0.0-95.0,2020-06-08_blueprint_3f1dfe34726f5a3e1bb900a1224d1c53.json,NULL,NULL,NULL,NULL,356531.98,"[356793.2349999901,357041.1299999978,357288.4400000039,357537.7649999864,357785.6249999895,358041.39999998733]",358193.325,NULL,NULL,1,NULL,ts-trial-digit-span,,,,,,,,,,,,,,,,,,,,,,,,,,,,,,,
