,index_raw,auto_participant_id,participant_age,participant_gender,type,trial_type,trial_index,time_start,participant_ans,target_ans,accuracy,response_time,changed_shifted,switch_type,occurence,first_switch_rt
1248,2,1152.5099999271333_59120,20.0,Female,ts-trial-digit-span,ts-trial,5.0,24162.275,1.0,1.0,1.0,871.005000000001,1.0,NONE-DS,1.0,
1249,3,1152.5099999271333_59120,20.0,Female,ts-trial-digit-span,ts-trial,7.0,29867.59,0.0,0.0,1.0,1697.5999999999985,0.0,none,1.0,
1250,4,1152.5099999271333_59120,20.0,Female,ts-trial-digit-span,ts-trial,9.0,35323.625,0.0,0.0,1.0,1823.104999999996,0.0,none,1.0,
1251,5,1152.5099999271333_59120,20.0,Female,ts-trial-digit-span,ts-trial,11.0,40588.15,1.0,1.0,1.0,1182.320000000007,0.0,none,1.0,
1252,6,1152.5099999271333_59120,20.0,Female,ts-trial-digit-span,ts-trial,13.0,45397.75,2.0,2.0,1.0,1447.3799999999974,0.0,none,1.0,
1253,7,1152.5099999271333_59120,20.0,Female,ts-trial-digit-span,ts-trial,15.0,50297.41,0.0,0.0,1.0,1973.0899999999965,0.0,none,1.0,
3686,2,1168.1700000001456_40690,20.0,Male,ts-trial-digit-span,ts-trial,5.0,72988.25,1.0,1.0,1.0,1865.4199999999983,1.0,NONE-DS,1.0,
3687,3,1168.1700000001456_40690,20.0,Male,ts-trial-digit-span,ts-trial,7.0,77983.62,0.0,0.0,1.0,2094.679999999993,0.0,none,1.0,
3688,4,1168.1700000001456_40690,20.0,Male,ts-trial-digit-span,ts-trial,9.0,82813.74,1.0,1.0,1.0,1764.6850000000122,0.0,none,1.0,
3689,5,1168.1700000001456_40690,20.0,Male,ts-trial-digit-span,ts-trial,11.0,88421.625,1.0,1.0,1.0,2105.6699999999983,0.0,none,1.0,
3690,6,1168.1700000001456_40690,20.0,Male,ts-trial-digit-span,ts-trial,13.0,93566.84,2.0,2.0,1.0,1907.1849999999977,0.0,none,1.0,
3691,7,1168.1700000001456_40690,20.0,Male,ts-trial-digit-span,ts-trial,15.0,98798.8,2.0,2.0,1.0,1782.0449999999983,0.0,none,1.0,
3692,8,1168.1700000001456_40690,20.0,Male,ts-trial-digit-span,ts-trial,17.0,103799.455,2.0,2.0,1.0,1895.7449999999953,0.0,none,1.0,
3693,9,1168.1700000001456_40690,20.0,Male,ts-trial-digit-span,ts-trial,19.0,109466.435,,0.0,,,0.0,none,1.0,
3694,10,1168.1700000001456_40690,20.0,Male,ts-trial-digit-span,ts-trial,21.0,115052.36,2.0,2.0,1.0,1639.7449999999953,0.0,none,1.0,
2633,2,1273.4650000929832_33389,22.0,female,ts-trial-digit-span,ts-trial,5.0,279052.02,1.0,1.0,1.0,2218.795000000042,1.0,NONE-DS,1.0,
2634,3,1273.4650000929832_33389,22.0,female,ts-trial-digit-span,ts-trial,7.0,284502.81,0.0,0.0,1.0,2358.3649999999907,0.0,none,1.0,
2635,4,1273.4650000929832_33389,22.0,female,ts-trial-digit-span,ts-trial,9.0,289832.44,2.0,2.0,1.0,1861.820000000007,0.0,none,1.0,
2636,5,1273.4650000929832_33389,22.0,female,ts-trial-digit-span,ts-trial,11.0,294699.435,1.0,1.0,1.0,1448.649999999965,0.0,none,1.0,
2637,6,1273.4650000929832_33389,22.0,female,ts-trial-digit-span,ts-trial,13.0,300022.595,0.0,0.0,1.0,1444.1500000000233,0.0,none,1.0,
2638,7,1273.4650000929832_33389,22.0,female,ts-trial-digit-span,ts-trial,15.0,305700.21,1.0,1.0,1.0,1581.5900000000256,0.0,none,1.0,
515,2,1718.75_45854,19.0,Female,ts-trial-digit-span,ts-trial,5.0,51823.17,1.0,1.0,1.0,2229.0699999999997,1.0,NONE-DS,1.0,
518,3,1718.75_45854,19.0,Female,ts-trial-digit-span,ts-trial,7.0,57584.31,2.0,2.0,1.0,2278.0,0.0,none,1.0,
520,4,1718.75_45854,19.0,Female,ts-trial-digit-span,ts-trial,9.0,62823.38,2.0,2.0,1.0,2285.689999999995,0.0,none,1.0,
523,5,1718.75_45854,19.0,Female,ts-trial-digit-span,ts-trial,11.0,67767.465,,1.0,,,0.0,none,1.0,
526,6,1718.75_45854,19.0,Female,ts-trial-digit-span,ts-trial,13.0,73119.21,1.0,1.0,1.0,1134.6600000000035,0.0,none,1.0,
529,7,1718.75_45854,19.0,Female,ts-trial-digit-span,ts-trial,15.0,78547.525,1.0,1.0,1.0,1260.5299999999988,0.0,none,1.0,
532,8,1718.75_45854,19.0,Female,ts-trial-digit-span,ts-trial,17.0,83721.22,1.0,1.0,1.0,1209.949999999997,0.0,none,1.0,
535,9,1718.75_45854,19.0,Female,ts-trial-digit-span,ts-trial,19.0,89083.64,0.0,0.0,1.0,1977.7799999999988,0.0,none,1.0,
4909,11,1830_2921,22.0,Male,ts-trial-digit-span,ts-trial,21.0,90848.0,2.0,2.0,1.0,1988.0,1.0,SR-DS,1.0,
4910,12,1830_2921,22.0,Male,ts-trial-digit-span,ts-trial,23.0,96250.0,,0.0,,,0.0,none,1.0,
4911,13,1830_2921,22.0,Male,ts-trial-digit-span,ts-trial,25.0,101574.0,2.0,2.0,1.0,1788.0,0.0,none,1.0,
4912,14,1830_2921,22.0,Male,ts-trial-digit-span,ts-trial,27.0,106373.0,2.0,2.0,1.0,1900.0,0.0,none,1.0,
4913,15,1830_2921,22.0,Male,ts-trial-digit-span,ts-trial,29.0,111983.0,1.0,1.0,1.0,794.0,0.0,none,1.0,
4914,16,1830_2921,22.0,Male,ts-trial-digit-span,ts-trial,31.0,117121.0,0.0,2.0,,1180.0,0.0,none,1.0,
828,10,1975.4950000206009_98708,24.0,Female,ts-trial-digit-span,ts-trial,19.0,179357.805,,1.0,,,1.0,SS-DS,1.0,
830,11,1975.4950000206009_98708,24.0,Female,ts-trial-digit-span,ts-trial,21.0,184631.995,2.0,2.0,1.0,1233.3500000000058,0.0,none,1.0,
832,12,1975.4950000206009_98708,24.0,Female,ts-trial-digit-span,ts-trial,23.0,190120.365,1.0,1.0,1.0,2015.0350000000035,0.0,none,1.0,
833,13,1975.4950000206009_98708,24.0,Female,ts-trial-digit-span,ts-trial,25.0,195608.12,1.0,1.0,1.0,2224.1849999999977,0.0,none,1.0,
835,14,1975.4950000206009_98708,24.0,Female,ts-trial-digit-span,ts-trial,27.0,200598.685,1.0,0.0,,1278.0650000000023,0.0,none,1.0,
837,15,1975.4950000206009_98708,24.0,Female,ts-trial-digit-span,ts-trial,29.0,206103.195,2.0,2.0,1.0,1481.765000000014,0.0,none,1.0,
839,16,1975.4950000206009_98708,24.0,Female,ts-trial-digit-span,ts-trial,31.0,211808.245,0.0,0.0,1.0,2726.679999999993,0.0,none,1.0,
842,17,1975.4950000206009_98708,24.0,Female,ts-trial-digit-span,ts-trial,33.0,216888.78,2.0,2.0,1.0,1372.8099999999977,0.0,none,1.0,
3476,2,217_86855,20.0,Female,ts-trial-digit-span,ts-trial,5.0,34660.0,2.0,2.0,1.0,2771.0,1.0,NONE-DS,1.0,
3477,3,217_86855,20.0,Female,ts-trial-digit-span,ts-trial,7.0,40098.0,0.0,2.0,,1516.0,0.0,none,1.0,
3478,4,217_86855,20.0,Female,ts-trial-digit-span,ts-trial,9.0,44903.0,1.0,1.0,1.0,1674.0,0.0,none,1.0,
3479,5,217_86855,20.0,Female,ts-trial-digit-span,ts-trial,11.0,49794.0,2.0,2.0,1.0,1711.0,0.0,none,1.0,
3480,6,217_86855,20.0,Female,ts-trial-digit-span,ts-trial,13.0,54958.0,0.0,1.0,,2498.0,0.0,none,1.0,
3481,7,217_86855,20.0,Female,ts-trial-digit-span,ts-trial,15.0,60399.0,1.0,1.0,1.0,2324.0,0.0,none,1.0,
3482,8,217_86855,20.0,Female,ts-trial-digit-span,ts-trial,17.0,65428.0,1.0,2.0,,1369.0,0.0,none,1.0,
3483,9,217_86855,20.0,Female,ts-trial-digit-span,ts-trial,19.0,70639.0,0.0,2.0,,2645.0,0.0,none,1.0,
3484,10,217_86855,20.0,Female,ts-trial-digit-span,ts-trial,21.0,76355.0,1.0,1.0,1.0,697.0,0.0,none,1.0,
3898,2,232_72278,19.0,Female,ts-trial-digit-span,ts-trial,5.0,50223.0,,2.0,,,1.0,NONE-DS,1.0,
3899,3,232_72278,19.0,Female,ts-trial-digit-span,ts-trial,7.0,55888.0,2.0,1.0,,1779.0,0.0,none,1.0,
3900,4,232_72278,19.0,Female,ts-trial-digit-span,ts-trial,9.0,61642.0,2.0,2.0,1.0,1779.0,0.0,none,1.0,
3901,5,232_72278,19.0,Female,ts-trial-digit-span,ts-trial,11.0,67281.0,2.0,2.0,1.0,2910.0,0.0,none,1.0,
3902,6,232_72278,19.0,Female,ts-trial-digit-span,ts-trial,13.0,72170.0,0.0,0.0,1.0,2784.0,0.0,none,1.0,
3903,7,232_72278,19.0,Female,ts-trial-digit-span,ts-trial,15.0,77572.0,,0.0,,,0.0,none,1.0,
3904,8,232_72278,19.0,Female,ts-trial-digit-span,ts-trial,17.0,82733.0,1.0,0.0,,2899.0,0.0,none,1.0,
3905,9,232_72278,19.0,Female,ts-trial-digit-span,ts-trial,19.0,87892.0,2.0,1.0,,2737.0,0.0,none,1.0,
1827,38,236.19000000007873_6858,20.0,Female ,ts-trial-digit-span,ts-trial,69.0,270468.83,1.0,1.0,1.0,2947.8699999999953,1.0,SS-DS,1.0,
1828,39,236.19000000007873_6858,20.0,Female ,ts-trial-digit-span,ts-trial,71.0,276138.235,0.0,0.0,1.0,2429.5999999999767,0.0,none,1.0,
1829,40,236.19000000007873_6858,20.0,Female ,ts-trial-digit-span,ts-trial,73.0,281845.065,,2.0,,,0.0,none,1.0,
1830,41,236.19000000007873_6858,20.0,Female ,ts-trial-digit-span,ts-trial,75.0,287481.245,1.0,2.0,,1456.789999999979,0.0,none,1.0,
1831,42,236.19000000007873_6858,20.0,Female ,ts-trial-digit-span,ts-trial,77.0,292409.01,2.0,2.0,1.0,1773.5349999999744,0.0,none,1.0,
1832,43,236.19000000007873_6858,20.0,Female ,ts-trial-digit-span,ts-trial,79.0,298104.705,,1.0,,,0.0,none,1.0,
1833,44,236.19000000007873_6858,20.0,Female ,ts-trial-digit-span,ts-trial,81.0,302895.405,2.0,1.0,,2048.579999999958,0.0,none,1.0,
1834,45,236.19000000007873_6858,20.0,Female ,ts-trial-digit-span,ts-trial,83.0,308633.245,0.0,0.0,1.0,2252.5599999999977,0.0,none,1.0,
230,2,251.67000001238193_90175,20.0,Female,ts-trial-digit-span,ts-trial,5.0,90683.355,1.0,1.0,1.0,2487.415000000008,1.0,NONE-DS,1.0,
231,3,251.67000001238193_90175,20.0,Female,ts-trial-digit-span,ts-trial,7.0,95771.31,2.0,2.0,1.0,2514.8800000000047,0.0,none,1.0,
233,4,251.67000001238193_90175,20.0,Female,ts-trial-digit-span,ts-trial,9.0,100784.025,,0.0,,,0.0,none,1.0,
235,5,251.67000001238193_90175,20.0,Female,ts-trial-digit-span,ts-trial,11.0,106087.055,0.0,2.0,,1841.2050000000017,0.0,none,1.0,
237,6,251.67000001238193_90175,20.0,Female,ts-trial-digit-span,ts-trial,13.0,111273.875,2.0,1.0,,2732.800000000003,0.0,none,1.0,
238,7,251.67000001238193_90175,20.0,Female,ts-trial-digit-span,ts-trial,15.0,116466.365,1.0,2.0,,1930.9549999999872,0.0,none,1.0,
240,8,251.67000001238193_90175,20.0,Female,ts-trial-digit-span,ts-trial,17.0,122157.89,0.0,0.0,1.0,2790.8300000000017,0.0,none,1.0,
242,9,251.67000001238193_90175,20.0,Female,ts-trial-digit-span,ts-trial,19.0,127782.075,2.0,2.0,1.0,2233.0850000000064,0.0,none,1.0,
2419,2,268.8400000006368_67932,20.0,female,ts-trial-digit-span,ts-trial,5.0,19490.615,,1.0,,,1.0,NONE-DS,1.0,
2420,3,268.8400000006368_67932,20.0,female,ts-trial-digit-span,ts-trial,7.0,24922.235,,0.0,,,0.0,none,1.0,
2421,4,268.8400000006368_67932,20.0,female,ts-trial-digit-span,ts-trial,9.0,30239.005,2.0,2.0,1.0,1580.4249999999993,0.0,none,1.0,
2422,5,268.8400000006368_67932,20.0,female,ts-trial-digit-span,ts-trial,11.0,35098.37,0.0,1.0,,2513.645000000004,0.0,none,1.0,
2423,6,268.8400000006368_67932,20.0,female,ts-trial-digit-span,ts-trial,13.0,40410.37,0.0,0.0,1.0,1306.3349999999991,0.0,none,1.0,
2424,7,268.8400000006368_67932,20.0,female,ts-trial-digit-span,ts-trial,15.0,46076.775,1.0,1.0,1.0,2738.8699999999953,0.0,none,1.0,
8,9,283.00000000000006_59779,20.0,Female,ts-trial-digit-span,ts-trial,17.0,98195.0,2.0,2.0,1.0,1456.0,1.0,SR-DS,1.0,
9,10,283.00000000000006_59779,20.0,Female,ts-trial-digit-span,ts-trial,19.0,103382.0,0.0,0.0,1.0,1433.0,0.0,none,1.0,
10,11,283.00000000000006_59779,20.0,Female,ts-trial-digit-span,ts-trial,21.0,108627.0,0.0,0.0,1.0,1617.0,0.0,none,1.0,
11,12,283.00000000000006_59779,20.0,Female,ts-trial-digit-span,ts-trial,23.0,113506.0,2.0,2.0,1.0,2170.0,0.0,none,1.0,
12,13,283.00000000000006_59779,20.0,Female,ts-trial-digit-span,ts-trial,25.0,118931.0,1.0,1.0,1.0,2613.0,0.0,none,1.0,
13,14,283.00000000000006_59779,20.0,Female,ts-trial-digit-span,ts-trial,27.0,124238.0,2.0,2.0,1.0,2809.0,0.0,none,1.0,
14,15,283.00000000000006_59779,20.0,Female,ts-trial-digit-span,ts-trial,29.0,129185.0,2.0,2.0,1.0,1958.0,0.0,none,1.0,
2209,2,293.7149999997928_80595,20.0,Female,ts-trial-digit-span,ts-trial,5.0,48764.42,,2.0,,,1.0,NONE-DS,1.0,
2210,3,293.7149999997928_80595,20.0,Female,ts-trial-digit-span,ts-trial,7.0,54212.165,2.0,2.0,1.0,998.9300000000003,0.0,none,1.0,
2211,4,293.7149999997928_80595,20.0,Female,ts-trial-digit-span,ts-trial,9.0,59021.705,1.0,1.0,1.0,1382.4200000000055,0.0,none,1.0,
2212,5,293.7149999997928_80595,20.0,Female,ts-trial-digit-span,ts-trial,11.0,63926.11,2.0,2.0,1.0,1596.5799999999872,0.0,none,1.0,
2213,6,293.7149999997928_80595,20.0,Female,ts-trial-digit-span,ts-trial,13.0,69099.92,1.0,1.0,1.0,2281.25,0.0,none,1.0,
2214,7,293.7149999997928_80595,20.0,Female,ts-trial-digit-span,ts-trial,15.0,74550.49,1.0,1.0,1.0,1702.62999999999,0.0,none,1.0,
2215,8,293.7149999997928_80595,20.0,Female,ts-trial-digit-span,ts-trial,17.0,79585.09,,2.0,,,0.0,none,1.0,
2216,9,293.7149999997928_80595,20.0,Female,ts-trial-digit-span,ts-trial,19.0,84796.17,2.0,2.0,1.0,2141.800000000003,0.0,none,1.0,
2217,10,293.7149999997928_80595,20.0,Female,ts-trial-digit-span,ts-trial,21.0,90515.15,1.0,1.0,1.0,2773.6100000000006,0.0,none,1.0,
4074,2,316_38703,21.0,Female,ts-trial-digit-span,ts-trial,5.0,45159.0,,0.0,,,1.0,NONE-DS,1.0,
4075,3,316_38703,21.0,Female,ts-trial-digit-span,ts-trial,7.0,50742.0,0.0,0.0,1.0,1860.0,0.0,none,1.0,
4076,4,316_38703,21.0,Female,ts-trial-digit-span,ts-trial,9.0,56061.0,2.0,2.0,1.0,1766.0,0.0,none,1.0,
4077,5,316_38703,21.0,Female,ts-trial-digit-span,ts-trial,11.0,61171.0,1.0,2.0,,1242.0,0.0,none,1.0,
4078,6,316_38703,21.0,Female,ts-trial-digit-span,ts-trial,13.0,65943.0,0.0,1.0,,1114.0,0.0,none,1.0,
4079,7,316_38703,21.0,Female,ts-trial-digit-span,ts-trial,15.0,71657.0,0.0,0.0,1.0,2022.0,0.0,none,1.0,
4080,8,316_38703,21.0,Female,ts-trial-digit-span,ts-trial,17.0,76505.0,2.0,0.0,,1895.0,0.0,none,1.0,
4081,9,316_38703,21.0,Female,ts-trial-digit-span,ts-trial,19.0,82008.0,0.0,0.0,1.0,1897.0,0.0,none,1.0,
3274,12,394_3084,20.0,female,ts-trial-digit-span,ts-trial,23.0,83995.0,1.0,1.0,1.0,1874.0,1.0,SR-DS,1.0,
3275,13,394_3084,20.0,female,ts-trial-digit-span,ts-trial,25.0,89740.0,2.0,2.0,1.0,2761.0,0.0,none,1.0,
3276,14,394_3084,20.0,female,ts-trial-digit-span,ts-trial,27.0,95481.0,0.0,0.0,1.0,1573.0,0.0,none,1.0,
3277,15,394_3084,20.0,female,ts-trial-digit-span,ts-trial,29.0,100254.0,,2.0,,,0.0,none,1.0,
3278,16,394_3084,20.0,female,ts-trial-digit-span,ts-trial,31.0,105147.0,2.0,2.0,1.0,2115.0,0.0,none,1.0,
3279,17,394_3084,20.0,female,ts-trial-digit-span,ts-trial,33.0,110501.0,2.0,2.0,1.0,1450.0,0.0,none,1.0,
3280,18,394_3084,20.0,female,ts-trial-digit-span,ts-trial,35.0,115635.0,2.0,2.0,1.0,1471.0,0.0,none,1.0,
3281,19,394_3084,20.0,female,ts-trial-digit-span,ts-trial,37.0,120527.0,1.0,1.0,1.0,1656.0,0.0,none,1.0,
3282,20,394_3084,20.0,female,ts-trial-digit-span,ts-trial,39.0,126210.0,1.0,1.0,1.0,1328.0,0.0,none,1.0,
4695,2,452.40499999999884_3732,20.0,Female,ts-trial-digit-span,ts-trial,5.0,44099.06,0.0,0.0,1.0,1154.7900000000009,1.0,NONE-DS,1.0,
4696,3,452.40499999999884_3732,20.0,Female,ts-trial-digit-span,ts-trial,7.0,48884.15,,2.0,,,0.0,none,1.0,
4697,4,452.40499999999884_3732,20.0,Female,ts-trial-digit-span,ts-trial,9.0,53908.505,1.0,1.0,1.0,1614.614999999998,0.0,none,1.0,
4698,5,452.40499999999884_3732,20.0,Female,ts-trial-digit-span,ts-trial,11.0,59367.965,2.0,2.0,1.0,1520.2650000000067,0.0,none,1.0,
4699,6,452.40499999999884_3732,20.0,Female,ts-trial-digit-span,ts-trial,13.0,64896.395,2.0,1.0,,1876.175000000003,0.0,none,1.0,
4700,7,452.40499999999884_3732,20.0,Female,ts-trial-digit-span,ts-trial,15.0,69821.42,2.0,2.0,1.0,1408.824999999997,0.0,none,1.0,
4289,9,4597.265000003972_15055,18.0,Female,ts-trial-digit-span,ts-trial,17.0,109488.73,0.0,0.0,1.0,1340.9199999999983,1.0,SR-DS,1.0,
4290,10,4597.265000003972_15055,18.0,Female,ts-trial-digit-span,ts-trial,19.0,114690.745,1.0,1.0,1.0,1643.8300000000017,0.0,none,1.0,
4291,11,4597.265000003972_15055,18.0,Female,ts-trial-digit-span,ts-trial,21.0,119623.275,2.0,2.0,1.0,2672.6949999999924,0.0,none,1.0,
4292,12,4597.265000003972_15055,18.0,Female,ts-trial-digit-span,ts-trial,23.0,124619.97,0.0,2.0,,2607.820000000007,0.0,none,1.0,
4293,13,4597.265000003972_15055,18.0,Female,ts-trial-digit-span,ts-trial,25.0,129623.58,1.0,1.0,1.0,2217.404999999999,0.0,none,1.0,
4294,14,4597.265000003972_15055,18.0,Female,ts-trial-digit-span,ts-trial,27.0,135242.31,,0.0,,,0.0,none,1.0,
884,28,462.85000001080334_70250,21.0,Female,ts-trial-digit-span,ts-trial,51.0,208411.36,0.0,0.0,1.0,1659.7200000000012,1.0,SS-DS,1.0,
885,29,462.85000001080334_70250,21.0,Female,ts-trial-digit-span,ts-trial,53.0,213880.07,2.0,2.0,1.0,1974.5849999999919,0.0,none,1.0,
887,30,462.85000001080334_70250,21.0,Female,ts-trial-digit-span,ts-trial,55.0,218707.93,1.0,1.0,1.0,2535.279999999999,0.0,none,1.0,
889,31,462.85000001080334_70250,21.0,Female,ts-trial-digit-span,ts-trial,57.0,224188.155,,1.0,,,0.0,none,1.0,
891,32,462.85000001080334_70250,21.0,Female,ts-trial-digit-span,ts-trial,59.0,229729.21,2.0,2.0,1.0,2280.654999999999,0.0,none,1.0,
893,33,462.85000001080334_70250,21.0,Female,ts-trial-digit-span,ts-trial,61.0,234720.43,0.0,0.0,1.0,2152.279999999999,0.0,none,1.0,
894,34,462.85000001080334_70250,21.0,Female,ts-trial-digit-span,ts-trial,63.0,239793.395,1.0,1.0,1.0,1472.6900000000023,0.0,none,1.0,
896,35,462.85000001080334_70250,21.0,Female,ts-trial-digit-span,ts-trial,65.0,244943.59,0.0,0.0,1.0,1994.7749999999942,0.0,none,1.0,
2856,11,550.7099999999809_41239,18.0,female,ts-trial-digit-span,ts-trial,21.0,144276.665,0.0,0.0,1.0,1490.0250000000233,1.0,SR-DS,1.0,
2857,12,550.7099999999809_41239,18.0,female,ts-trial-digit-span,ts-trial,23.0,149441.39,1.0,1.0,1.0,2415.029999999999,0.0,none,1.0,
2858,13,550.7099999999809_41239,18.0,female,ts-trial-digit-span,ts-trial,25.0,154464.745,0.0,0.0,1.0,1979.679999999993,0.0,none,1.0,
2859,14,550.7099999999809_41239,18.0,female,ts-trial-digit-span,ts-trial,27.0,159976.435,2.0,2.0,1.0,2134.5,0.0,none,1.0,
2860,15,550.7099999999809_41239,18.0,female,ts-trial-digit-span,ts-trial,29.0,165656.94,0.0,0.0,1.0,2269.470000000001,0.0,none,1.0,
2861,16,550.7099999999809_41239,18.0,female,ts-trial-digit-span,ts-trial,31.0,171102.44,0.0,1.0,,1582.5849999999919,0.0,none,1.0,
3059,2,569.4950000033714_22620,19.0,Female,ts-trial-digit-span,ts-trial,5.0,44574.355,,1.0,,,1.0,NONE-DS,1.0,
3060,3,569.4950000033714_22620,19.0,Female,ts-trial-digit-span,ts-trial,7.0,49871.595,2.0,2.0,1.0,2049.5750000000044,0.0,none,1.0,
3061,4,569.4950000033714_22620,19.0,Female,ts-trial-digit-span,ts-trial,9.0,55551.275,,1.0,,,0.0,none,1.0,
3062,5,569.4950000033714_22620,19.0,Female,ts-trial-digit-span,ts-trial,11.0,60642.32,2.0,1.0,,2002.435000000005,0.0,none,1.0,
3063,6,569.4950000033714_22620,19.0,Female,ts-trial-digit-span,ts-trial,13.0,66076.05,,0.0,,,0.0,none,1.0,
3064,7,569.4950000033714_22620,19.0,Female,ts-trial-digit-span,ts-trial,15.0,71183.965,0.0,0.0,1.0,2032.574999999997,0.0,none,1.0,
3065,8,569.4950000033714_22620,19.0,Female,ts-trial-digit-span,ts-trial,17.0,76235.175,0.0,0.0,1.0,1135.8099999999977,0.0,none,1.0,
2017,19,611.2100000027567_97917,19.0,male,ts-trial-digit-span,ts-trial,35.0,136380.45,2.0,2.0,1.0,2435.930000000022,1.0,SS-DS,1.0,
2018,20,611.2100000027567_97917,19.0,male,ts-trial-digit-span,ts-trial,37.0,142102.285,1.0,1.0,1.0,2777.720000000001,0.0,none,1.0,
2019,21,611.2100000027567_97917,19.0,male,ts-trial-digit-span,ts-trial,39.0,147359.825,,1.0,,,0.0,none,1.0,
2020,22,611.2100000027567_97917,19.0,male,ts-trial-digit-span,ts-trial,41.0,152321.945,2.0,2.0,1.0,1948.1849999999977,0.0,none,1.0,
2021,23,611.2100000027567_97917,19.0,male,ts-trial-digit-span,ts-trial,43.0,158085.045,2.0,2.0,1.0,2593.8949999999895,0.0,none,1.0,
2022,24,611.2100000027567_97917,19.0,male,ts-trial-digit-span,ts-trial,45.0,163564.41,0.0,0.0,1.0,1674.7049999999872,0.0,none,1.0,
2023,25,611.2100000027567_97917,19.0,male,ts-trial-digit-span,ts-trial,47.0,168596.995,0.0,0.0,1.0,2114.414999999979,0.0,none,1.0,
4508,20,755.2750000031665_40766,19.0,Female,ts-trial-digit-span,ts-trial,37.0,164280.84,1.0,1.0,1.0,1952.8800000000047,1.0,SR-DS,1.0,
4509,21,755.2750000031665_40766,19.0,Female,ts-trial-digit-span,ts-trial,39.0,169789.425,2.0,2.0,1.0,2161.570000000007,0.0,none,1.0,
4510,22,755.2750000031665_40766,19.0,Female,ts-trial-digit-span,ts-trial,41.0,174642.96,,2.0,,,0.0,none,1.0,
4511,23,755.2750000031665_40766,19.0,Female,ts-trial-digit-span,ts-trial,43.0,179611.11,2.0,2.0,1.0,2759.375,0.0,none,1.0,
4512,24,755.2750000031665_40766,19.0,Female,ts-trial-digit-span,ts-trial,45.0,184853.195,0.0,2.0,,1436.070000000007,0.0,none,1.0,
4513,25,755.2750000031665_40766,19.0,Female,ts-trial-digit-span,ts-trial,47.0,190170.32,0.0,2.0,,2548.3800000000047,0.0,none,1.0,
212,9,831.5449999936391_42874,21.0,female,ts-trial-digit-span,ts-trial,17.0,110537.525,,2.0,,,1.0,SR-DS,1.0,
213,10,831.5449999936391_42874,21.0,female,ts-trial-digit-span,ts-trial,19.0,115696.025,,0.0,,,0.0,none,1.0,
214,11,831.5449999936391_42874,21.0,female,ts-trial-digit-span,ts-trial,21.0,121480.05,,2.0,,,0.0,none,1.0,
215,12,831.5449999936391_42874,21.0,female,ts-trial-digit-span,ts-trial,23.0,127012.28,,1.0,,,0.0,none,1.0,
216,13,831.5449999936391_42874,21.0,female,ts-trial-digit-span,ts-trial,25.0,132438.115,,1.0,,,0.0,none,1.0,
217,14,831.5449999936391_42874,21.0,female,ts-trial-digit-span,ts-trial,27.0,138052.275,0.0,0.0,1.0,2922.1600000000035,0.0,none,1.0,
1661,12,870_66478,19.0,Female,ts-trial-digit-span,ts-trial,23.0,100248.0,1.0,0.0,,1169.0,1.0,SR-DS,1.0,
1662,13,870_66478,19.0,Female,ts-trial-digit-span,ts-trial,25.0,105327.0,2.0,0.0,,1719.0,0.0,none,1.0,
1663,14,870_66478,19.0,Female,ts-trial-digit-span,ts-trial,27.0,110130.0,,1.0,,,0.0,none,1.0,
1664,15,870_66478,19.0,Female,ts-trial-digit-span,ts-trial,29.0,115680.0,1.0,1.0,1.0,2252.0,0.0,none,1.0,
1665,16,870_66478,19.0,Female,ts-trial-digit-span,ts-trial,31.0,121376.0,0.0,0.0,1.0,1705.0,0.0,none,1.0,
1666,17,870_66478,19.0,Female,ts-trial-digit-span,ts-trial,33.0,126291.0,2.0,0.0,,1728.0,0.0,none,1.0,
1455,2,961_63147,19.0,Female,ts-trial-digit-span,ts-trial,5.0,89163.0,,1.0,,,1.0,NONE-DS,1.0,
1456,3,961_63147,19.0,Female,ts-trial-digit-span,ts-trial,7.0,94259.0,0.0,1.0,,1508.0,0.0,none,1.0,
1457,4,961_63147,19.0,Female,ts-trial-digit-span,ts-trial,9.0,99762.0,2.0,2.0,1.0,2890.0,0.0,none,1.0,
1458,5,961_63147,19.0,Female,ts-trial-digit-span,ts-trial,11.0,104903.0,2.0,2.0,1.0,2368.0,0.0,none,1.0,
1459,6,961_63147,19.0,Female,ts-trial-digit-span,ts-trial,13.0,110192.0,,2.0,,,0.0,none,1.0,
1460,7,961_63147,19.0,Female,ts-trial-digit-span,ts-trial,15.0,115094.0,1.0,0.0,,1858.0,0.0,none,1.0,
1461,8,961_63147,19.0,Female,ts-trial-digit-span,ts-trial,17.0,120244.0,1.0,0.0,,1962.0,0.0,none,1.0,
1462,9,961_63147,19.0,Female,ts-trial-digit-span,ts-trial,19.0,125656.0,1.0,1.0,1.0,2881.0,0.0,none,1.0,871.005000000001
1272,26,1152.5099999271333_59120,20.0,Female,ts-trial-digit-span,ts-trial,47.0,161775.765,1.0,1.0,1.0,935.0350000000035,1.0,SS-DS,2.0,
1273,27,1152.5099999271333_59120,20.0,Female,ts-trial-digit-span,ts-trial,49.0,166698.01,1.0,1.0,1.0,814.5149999999849,0.0,none,2.0,
1274,28,1152.5099999271333_59120,20.0,Female,ts-trial-digit-span,ts-trial,51.0,172120.12,1.0,2.0,,2241.540000000008,0.0,none,2.0,
1275,29,1152.5099999271333_59120,20.0,Female,ts-trial-digit-span,ts-trial,53.0,177098.375,0.0,0.0,1.0,1027.109999999986,0.0,none,2.0,
1276,30,1152.5099999271333_59120,20.0,Female,ts-trial-digit-span,ts-trial,55.0,182302.79,0.0,0.0,1.0,804.0750000000116,0.0,none,2.0,
1277,31,1152.5099999271333_59120,20.0,Female,ts-trial-digit-span,ts-trial,57.0,187950.305,0.0,0.0,1.0,968.0250000000233,0.0,none,2.0,
1278,32,1152.5099999271333_59120,20.0,Female,ts-trial-digit-span,ts-trial,59.0,193003.275,0.0,0.0,1.0,823.804999999993,0.0,none,2.0,
1279,33,1152.5099999271333_59120,20.0,Female,ts-trial-digit-span,ts-trial,61.0,198425.195,2.0,2.0,1.0,1305.679999999993,0.0,none,2.0,
1280,34,1152.5099999271333_59120,20.0,Female,ts-trial-digit-span,ts-trial,63.0,203655.395,0.0,0.0,1.0,856.7600000000093,0.0,none,2.0,
3704,20,1168.1700000001456_40690,20.0,Male,ts-trial-digit-span,ts-trial,37.0,173094.27,,2.0,,,1.0,SS-DS,2.0,
3705,21,1168.1700000001456_40690,20.0,Male,ts-trial-digit-span,ts-trial,39.0,178588.41,0.0,1.0,,1716.5800000000163,0.0,none,2.0,
3706,22,1168.1700000001456_40690,20.0,Male,ts-trial-digit-span,ts-trial,41.0,183635.36,2.0,2.0,1.0,1285.0099999999802,0.0,none,2.0,
3707,23,1168.1700000001456_40690,20.0,Male,ts-trial-digit-span,ts-trial,43.0,188584.68,1.0,1.0,1.0,1802.375,0.0,none,2.0,
3708,24,1168.1700000001456_40690,20.0,Male,ts-trial-digit-span,ts-trial,45.0,194315.365,1.0,1.0,1.0,1968.7149999999965,0.0,none,2.0,
3709,25,1168.1700000001456_40690,20.0,Male,ts-trial-digit-span,ts-trial,47.0,199609.215,2.0,2.0,1.0,2481.649999999994,0.0,none,2.0,
3710,26,1168.1700000001456_40690,20.0,Male,ts-trial-digit-span,ts-trial,49.0,204965.96,2.0,2.0,1.0,1353.210000000021,0.0,none,2.0,
2649,18,1273.4650000929832_33389,22.0,female,ts-trial-digit-span,ts-trial,33.0,364828.325,1.0,1.0,1.0,1832.765000000014,1.0,SS-DS,2.0,
2650,19,1273.4650000929832_33389,22.0,female,ts-trial-digit-span,ts-trial,35.0,369701.3,1.0,2.0,,1363.820000000007,0.0,none,2.0,
2651,20,1273.4650000929832_33389,22.0,female,ts-trial-digit-span,ts-trial,37.0,374522.435,2.0,2.0,1.0,988.8400000000256,0.0,none,2.0,
2652,21,1273.4650000929832_33389,22.0,female,ts-trial-digit-span,ts-trial,39.0,379441.715,2.0,2.0,1.0,975.6849999999977,0.0,none,2.0,
2653,22,1273.4650000929832_33389,22.0,female,ts-trial-digit-span,ts-trial,41.0,384793.43,0.0,2.0,,1687.804999999993,0.0,none,2.0,
2654,23,1273.4650000929832_33389,22.0,female,ts-trial-digit-span,ts-trial,43.0,390068.84,2.0,2.0,1.0,977.7600000000093,0.0,none,2.0,
2655,24,1273.4650000929832_33389,22.0,female,ts-trial-digit-span,ts-trial,45.0,394949.325,1.0,1.0,1.0,1052.1399999999558,0.0,none,2.0,
570,20,1718.75_45854,19.0,Female,ts-trial-digit-span,ts-trial,37.0,154942.58,0.0,1.0,,1315.804999999993,1.0,SS-DS,2.0,
573,21,1718.75_45854,19.0,Female,ts-trial-digit-span,ts-trial,39.0,160700.975,2.0,0.0,,1570.7600000000093,0.0,none,2.0,
576,22,1718.75_45854,19.0,Female,ts-trial-digit-span,ts-trial,41.0,166306.95,2.0,2.0,1.0,1979.890000000014,0.0,none,2.0,
579,23,1718.75_45854,19.0,Female,ts-trial-digit-span,ts-trial,43.0,171752.33,1.0,1.0,1.0,2344.720000000001,0.0,none,2.0,
582,24,1718.75_45854,19.0,Female,ts-trial-digit-span,ts-trial,45.0,177027.185,2.0,2.0,1.0,1808.6750000000175,0.0,none,2.0,
585,25,1718.75_45854,19.0,Female,ts-trial-digit-span,ts-trial,47.0,182245.045,2.0,2.0,1.0,1668.0050000000047,0.0,none,2.0,
588,26,1718.75_45854,19.0,Female,ts-trial-digit-span,ts-trial,49.0,187888.46,0.0,0.0,1.0,1238.8699999999953,0.0,none,2.0,
591,27,1718.75_45854,19.0,Female,ts-trial-digit-span,ts-trial,51.0,192997.08,1.0,1.0,1.0,2093.445000000007,0.0,none,2.0,
4926,28,1830_2921,22.0,Male,ts-trial-digit-span,ts-trial,51.0,188954.0,2.0,0.0,,1292.0,1.0,SS-DS,2.0,
4927,29,1830_2921,22.0,Male,ts-trial-digit-span,ts-trial,53.0,194320.0,0.0,2.0,,1235.0,0.0,none,2.0,
4928,30,1830_2921,22.0,Male,ts-trial-digit-span,ts-trial,55.0,199847.0,2.0,2.0,1.0,1555.0,0.0,none,2.0,
4929,31,1830_2921,22.0,Male,ts-trial-digit-span,ts-trial,57.0,204607.0,2.0,2.0,1.0,2130.0,0.0,none,2.0,
4930,32,1830_2921,22.0,Male,ts-trial-digit-span,ts-trial,59.0,210364.0,,2.0,,,0.0,none,2.0,
4931,33,1830_2921,22.0,Male,ts-trial-digit-span,ts-trial,61.0,215122.0,2.0,2.0,1.0,425.0,0.0,none,2.0,
863,28,1975.4950000206009_98708,24.0,Female,ts-trial-digit-span,ts-trial,51.0,282570.435,2.0,2.0,1.0,1409.8699999999953,1.0,SR-DS,2.0,
865,29,1975.4950000206009_98708,24.0,Female,ts-trial-digit-span,ts-trial,53.0,287999.915,2.0,2.0,1.0,1288.8600000000442,0.0,none,2.0,
866,30,1975.4950000206009_98708,24.0,Female,ts-trial-digit-span,ts-trial,55.0,293219.96,1.0,1.0,1.0,2035.7099999999627,0.0,none,2.0,
868,31,1975.4950000206009_98708,24.0,Female,ts-trial-digit-span,ts-trial,57.0,298709.58,0.0,0.0,1.0,1724.3250000000116,0.0,none,2.0,
870,32,1975.4950000206009_98708,24.0,Female,ts-trial-digit-span,ts-trial,59.0,303871.975,1.0,1.0,1.0,1909.3499999999767,0.0,none,2.0,
872,33,1975.4950000206009_98708,24.0,Female,ts-trial-digit-span,ts-trial,61.0,309181.12,0.0,0.0,1.0,1549.210000000021,0.0,none,2.0,
873,34,1975.4950000206009_98708,24.0,Female,ts-trial-digit-span,ts-trial,63.0,314743.175,,2.0,,,0.0,none,2.0,
875,35,1975.4950000206009_98708,24.0,Female,ts-trial-digit-span,ts-trial,65.0,319613.19,1.0,1.0,1.0,1835.6849999999977,0.0,none,2.0,
877,36,1975.4950000206009_98708,24.0,Female,ts-trial-digit-span,ts-trial,67.0,325280.185,1.0,2.0,,1756.3950000000186,0.0,none,2.0,
3515,41,217_86855,20.0,Female,ts-trial-digit-span,ts-trial,75.0,267776.0,0.0,0.0,1.0,2945.0,1.0,SS-DS,2.0,
3516,42,217_86855,20.0,Female,ts-trial-digit-span,ts-trial,77.0,273184.0,2.0,2.0,1.0,1499.0,0.0,none,2.0,
3517,43,217_86855,20.0,Female,ts-trial-digit-span,ts-trial,79.0,278810.0,0.0,0.0,1.0,1595.0,0.0,none,2.0,
3518,44,217_86855,20.0,Female,ts-trial-digit-span,ts-trial,81.0,283950.0,,0.0,,,0.0,none,2.0,
3519,45,217_86855,20.0,Female,ts-trial-digit-span,ts-trial,83.0,289611.0,2.0,2.0,1.0,1217.0,0.0,none,2.0,
3520,46,217_86855,20.0,Female,ts-trial-digit-span,ts-trial,85.0,294561.0,0.0,0.0,1.0,2796.0,0.0,none,2.0,
3521,47,217_86855,20.0,Female,ts-trial-digit-span,ts-trial,87.0,300225.0,1.0,0.0,,2602.0,0.0,none,2.0,
3522,48,217_86855,20.0,Female,ts-trial-digit-span,ts-trial,89.0,305030.0,0.0,0.0,1.0,1823.0,0.0,none,2.0,
3914,18,232_72278,19.0,Female,ts-trial-digit-span,ts-trial,33.0,140243.0,2.0,2.0,1.0,2169.0,1.0,SR-DS,2.0,
3915,19,232_72278,19.0,Female,ts-trial-digit-span,ts-trial,35.0,145491.0,2.0,1.0,,2989.0,0.0,none,2.0,
3916,20,232_72278,19.0,Female,ts-trial-digit-span,ts-trial,37.0,151072.0,2.0,1.0,,2872.0,0.0,none,2.0,
3917,21,232_72278,19.0,Female,ts-trial-digit-span,ts-trial,39.0,156441.0,,2.0,,,0.0,none,2.0,
3918,22,232_72278,19.0,Female,ts-trial-digit-span,ts-trial,41.0,161902.0,1.0,1.0,1.0,1759.0,0.0,none,2.0,
3919,23,232_72278,19.0,Female,ts-trial-digit-span,ts-trial,43.0,166730.0,2.0,2.0,1.0,1642.0,0.0,none,2.0,
3920,24,232_72278,19.0,Female,ts-trial-digit-span,ts-trial,45.0,171650.0,2.0,1.0,,2527.0,0.0,none,2.0,
3921,25,232_72278,19.0,Female,ts-trial-digit-span,ts-trial,47.0,176661.0,2.0,2.0,1.0,2353.0,0.0,none,2.0,
3922,26,232_72278,19.0,Female,ts-trial-digit-span,ts-trial,49.0,182301.0,,2.0,,,0.0,none,2.0,
1845,56,236.19000000007873_6858,20.0,Female ,ts-trial-digit-span,ts-trial,101.0,368424.42,2.0,2.0,1.0,1709.984999999986,1.0,SS-DS,2.0,
1846,57,236.19000000007873_6858,20.0,Female ,ts-trial-digit-span,ts-trial,103.0,374006.885,0.0,2.0,,2505.820000000007,0.0,none,2.0,
1847,58,236.19000000007873_6858,20.0,Female ,ts-trial-digit-span,ts-trial,105.0,378876.61,0.0,2.0,,2406.2900000000373,0.0,none,2.0,
1848,59,236.19000000007873_6858,20.0,Female ,ts-trial-digit-span,ts-trial,107.0,384467.04,1.0,2.0,,1949.704999999958,0.0,none,2.0,
1849,60,236.19000000007873_6858,20.0,Female ,ts-trial-digit-span,ts-trial,109.0,389239.43,0.0,0.0,1.0,1649.234999999986,0.0,none,2.0,
1850,61,236.19000000007873_6858,20.0,Female ,ts-trial-digit-span,ts-trial,111.0,394744.1,0.0,0.0,1.0,2558.429999999993,0.0,none,2.0,
342,57,251.67000001238193_90175,20.0,Female,ts-trial-digit-span,ts-trial,101.0,410137.55,2.0,2.0,1.0,1737.4000000000233,1.0,SR-DS,2.0,
344,58,251.67000001238193_90175,20.0,Female,ts-trial-digit-span,ts-trial,103.0,415327.135,1.0,0.0,,2003.719999999972,0.0,none,2.0,
345,59,251.67000001238193_90175,20.0,Female,ts-trial-digit-span,ts-trial,105.0,420871.4,1.0,0.0,,1852.210000000021,0.0,none,2.0,
347,60,251.67000001238193_90175,20.0,Female,ts-trial-digit-span,ts-trial,107.0,426054.655,0.0,0.0,1.0,1828.5,0.0,none,2.0,
349,61,251.67000001238193_90175,20.0,Female,ts-trial-digit-span,ts-trial,109.0,431755.74,0.0,2.0,,2465.774999999965,0.0,none,2.0,
351,62,251.67000001238193_90175,20.0,Female,ts-trial-digit-span,ts-trial,111.0,436554.97,2.0,0.0,,2521.515000000014,0.0,none,2.0,
353,63,251.67000001238193_90175,20.0,Female,ts-trial-digit-span,ts-trial,113.0,441362.38,1.0,1.0,1.0,1647.1300000000047,0.0,none,2.0,
355,64,251.67000001238193_90175,20.0,Female,ts-trial-digit-span,ts-trial,115.0,446340.81,0.0,2.0,,2087.6450000000186,0.0,none,2.0,
2435,18,268.8400000006368_67932,20.0,female,ts-trial-digit-span,ts-trial,33.0,105090.93,1.0,1.0,1.0,901.7799999999988,1.0,SS-DS,2.0,
2436,19,268.8400000006368_67932,20.0,female,ts-trial-digit-span,ts-trial,35.0,109944.77,1.0,2.0,,2041.6700000000128,0.0,none,2.0,
2437,20,268.8400000006368_67932,20.0,female,ts-trial-digit-span,ts-trial,37.0,114756.535,1.0,2.0,,1465.4400000000023,0.0,none,2.0,
2438,21,268.8400000006368_67932,20.0,female,ts-trial-digit-span,ts-trial,39.0,119661.235,2.0,2.0,1.0,2097.9900000000052,0.0,none,2.0,
2439,22,268.8400000006368_67932,20.0,female,ts-trial-digit-span,ts-trial,41.0,125002.08,2.0,2.0,1.0,1115.1900000000023,0.0,none,2.0,
2440,23,268.8400000006368_67932,20.0,female,ts-trial-digit-span,ts-trial,43.0,130271.875,2.0,2.0,1.0,1464.1650000000081,0.0,none,2.0,
2441,24,268.8400000006368_67932,20.0,female,ts-trial-digit-span,ts-trial,45.0,135134.765,1.0,1.0,1.0,1268.0349999999744,0.0,none,2.0,
26,27,283.00000000000006_59779,20.0,Female,ts-trial-digit-span,ts-trial,49.0,202572.0,2.0,1.0,,2910.0,1.0,SR-DS,2.0,
27,28,283.00000000000006_59779,20.0,Female,ts-trial-digit-span,ts-trial,51.0,208135.0,1.0,0.0,,2081.0,0.0,none,2.0,
28,29,283.00000000000006_59779,20.0,Female,ts-trial-digit-span,ts-trial,53.0,213203.0,2.0,0.0,,2152.0,0.0,none,2.0,
29,30,283.00000000000006_59779,20.0,Female,ts-trial-digit-span,ts-trial,55.0,218392.0,0.0,0.0,1.0,2374.0,0.0,none,2.0,
30,31,283.00000000000006_59779,20.0,Female,ts-trial-digit-span,ts-trial,57.0,224134.0,0.0,0.0,1.0,1341.0,0.0,none,2.0,
31,32,283.00000000000006_59779,20.0,Female,ts-trial-digit-span,ts-trial,59.0,229650.0,0.0,0.0,1.0,1876.0,0.0,none,2.0,
2248,41,293.7149999997928_80595,20.0,Female,ts-trial-digit-span,ts-trial,75.0,282085.675,0.0,0.0,1.0,1366.4000000000233,1.0,SS-DS,2.0,
2249,42,293.7149999997928_80595,20.0,Female,ts-trial-digit-span,ts-trial,77.0,287500.275,2.0,2.0,1.0,1037.6049999999814,0.0,none,2.0,
2250,43,293.7149999997928_80595,20.0,Female,ts-trial-digit-span,ts-trial,79.0,293126.81,0.0,0.0,1.0,1261.1549999999697,0.0,none,2.0,
2251,44,293.7149999997928_80595,20.0,Female,ts-trial-digit-span,ts-trial,81.0,298267.385,0.0,0.0,1.0,1632.5599999999977,0.0,none,2.0,
2252,45,293.7149999997928_80595,20.0,Female,ts-trial-digit-span,ts-trial,83.0,303937.47,2.0,2.0,1.0,1307.5999999999767,0.0,none,2.0,
2253,46,293.7149999997928_80595,20.0,Female,ts-trial-digit-span,ts-trial,85.0,308893.535,0.0,0.0,1.0,1698.7600000000093,0.0,none,2.0,
2254,47,293.7149999997928_80595,20.0,Female,ts-trial-digit-span,ts-trial,87.0,314566.275,0.0,0.0,1.0,2148.0,0.0,none,2.0,
2255,48,293.7149999997928_80595,20.0,Female,ts-trial-digit-span,ts-trial,89.0,319377.62,0.0,0.0,1.0,1370.795000000042,0.0,none,2.0,
4113,41,316_38703,21.0,Female,ts-trial-digit-span,ts-trial,75.0,276295.0,2.0,2.0,1.0,1416.0,1.0,SR-DS,2.0,
4114,42,316_38703,21.0,Female,ts-trial-digit-span,ts-trial,77.0,282055.0,2.0,2.0,1.0,1664.0,0.0,none,2.0,
4115,43,316_38703,21.0,Female,ts-trial-digit-span,ts-trial,79.0,286928.0,1.0,0.0,,2307.0,0.0,none,2.0,
4116,44,316_38703,21.0,Female,ts-trial-digit-span,ts-trial,81.0,291697.0,1.0,1.0,1.0,1453.0,0.0,none,2.0,
4117,45,316_38703,21.0,Female,ts-trial-digit-span,ts-trial,83.0,296592.0,0.0,0.0,1.0,1767.0,0.0,none,2.0,
4118,46,316_38703,21.0,Female,ts-trial-digit-span,ts-trial,85.0,301445.0,2.0,2.0,1.0,2078.0,0.0,none,2.0,
4119,47,316_38703,21.0,Female,ts-trial-digit-span,ts-trial,87.0,306942.0,1.0,1.0,1.0,1985.0,0.0,none,2.0,
4120,48,316_38703,21.0,Female,ts-trial-digit-span,ts-trial,89.0,312575.0,0.0,2.0,,2941.0,0.0,none,2.0,
3293,31,394_3084,20.0,female,ts-trial-digit-span,ts-trial,57.0,187895.0,2.0,2.0,1.0,1976.0,1.0,SR-DS,2.0,
3294,32,394_3084,20.0,female,ts-trial-digit-span,ts-trial,59.0,192845.0,,0.0,,,0.0,none,2.0,
3295,33,394_3084,20.0,female,ts-trial-digit-span,ts-trial,61.0,197615.0,0.0,0.0,1.0,1817.0,0.0,none,2.0,
3296,34,394_3084,20.0,female,ts-trial-digit-span,ts-trial,63.0,202491.0,0.0,0.0,1.0,1814.0,0.0,none,2.0,
3297,35,394_3084,20.0,female,ts-trial-digit-span,ts-trial,65.0,207948.0,2.0,2.0,1.0,1701.0,0.0,none,2.0,
3298,36,394_3084,20.0,female,ts-trial-digit-span,ts-trial,67.0,213579.0,0.0,0.0,1.0,1657.0,0.0,none,2.0,
3299,37,394_3084,20.0,female,ts-trial-digit-span,ts-trial,69.0,218803.0,1.0,1.0,1.0,1672.0,0.0,none,2.0,
4712,19,452.40499999999884_3732,20.0,Female,ts-trial-digit-span,ts-trial,35.0,138277.035,1.0,0.0,,1535.0199999999895,1.0,SS-DS,2.0,
4713,20,452.40499999999884_3732,20.0,Female,ts-trial-digit-span,ts-trial,37.0,143453.51,2.0,1.0,,2354.8150000000023,0.0,none,2.0,
4714,21,452.40499999999884_3732,20.0,Female,ts-trial-digit-span,ts-trial,39.0,148572.445,1.0,1.0,1.0,2790.545000000013,0.0,none,2.0,
4715,22,452.40499999999884_3732,20.0,Female,ts-trial-digit-span,ts-trial,41.0,153711.63,1.0,1.0,1.0,1779.3899999999849,0.0,none,2.0,
4716,23,452.40499999999884_3732,20.0,Female,ts-trial-digit-span,ts-trial,43.0,159460.595,2.0,2.0,1.0,1710.1200000000244,0.0,none,2.0,
4717,24,452.40499999999884_3732,20.0,Female,ts-trial-digit-span,ts-trial,45.0,164230.38,0.0,0.0,1.0,1526.8349999999919,0.0,none,2.0,
4718,25,452.40499999999884_3732,20.0,Female,ts-trial-digit-span,ts-trial,47.0,169225.74,2.0,2.0,1.0,1073.2749999999942,0.0,none,2.0,
4719,26,452.40499999999884_3732,20.0,Female,ts-trial-digit-span,ts-trial,49.0,174557.45,2.0,2.0,1.0,2221.3699999999953,0.0,none,2.0,
4313,33,4597.265000003972_15055,18.0,Female,ts-trial-digit-span,ts-trial,59.0,244122.755,2.0,2.0,1.0,1616.1499999999942,1.0,SS-DS,2.0,
4314,34,4597.265000003972_15055,18.0,Female,ts-trial-digit-span,ts-trial,61.0,249323.2,0.0,0.0,1.0,1820.7000000000116,0.0,none,2.0,
4315,35,4597.265000003972_15055,18.0,Female,ts-trial-digit-span,ts-trial,63.0,255030.38,,2.0,,,0.0,none,2.0,
4316,36,4597.265000003972_15055,18.0,Female,ts-trial-digit-span,ts-trial,65.0,259824.385,0.0,2.0,,1043.7949999999837,0.0,none,2.0,
4317,37,4597.265000003972_15055,18.0,Female,ts-trial-digit-span,ts-trial,67.0,265502.54,0.0,1.0,,1768.570000000007,0.0,none,2.0,
4318,38,4597.265000003972_15055,18.0,Female,ts-trial-digit-span,ts-trial,69.0,271104.06,0.0,1.0,,2536.0499999999884,0.0,none,2.0,
4319,39,4597.265000003972_15055,18.0,Female,ts-trial-digit-span,ts-trial,71.0,276231.225,2.0,2.0,1.0,1598.625,0.0,none,2.0,
4320,40,4597.265000003972_15055,18.0,Female,ts-trial-digit-span,ts-trial,73.0,281549.66,1.0,2.0,,2724.9349999999977,0.0,none,2.0,
933,53,462.85000001080334_70250,21.0,Female,ts-trial-digit-span,ts-trial,95.0,348033.455,1.0,2.0,,1391.1350000000093,1.0,SS-DS,2.0,
935,54,462.85000001080334_70250,21.0,Female,ts-trial-digit-span,ts-trial,97.0,353240.5,0.0,2.0,,1236.179999999993,0.0,none,2.0,
937,55,462.85000001080334_70250,21.0,Female,ts-trial-digit-span,ts-trial,99.0,358700.51,1.0,1.0,1.0,1210.265000000014,0.0,none,2.0,
939,56,462.85000001080334_70250,21.0,Female,ts-trial-digit-span,ts-trial,101.0,363797.935,2.0,2.0,1.0,1446.6999999999534,0.0,none,2.0,
941,57,462.85000001080334_70250,21.0,Female,ts-trial-digit-span,ts-trial,103.0,368896.795,2.0,2.0,1.0,2317.5599999999977,0.0,none,2.0,
942,58,462.85000001080334_70250,21.0,Female,ts-trial-digit-span,ts-trial,105.0,373928.465,0.0,0.0,1.0,1550.9550000000163,0.0,none,2.0,
944,59,462.85000001080334_70250,21.0,Female,ts-trial-digit-span,ts-trial,107.0,378849.425,1.0,1.0,1.0,2590.515000000014,0.0,none,2.0,
946,60,462.85000001080334_70250,21.0,Female,ts-trial-digit-span,ts-trial,109.0,383963.43,2.0,2.0,1.0,2288.4800000000396,0.0,none,2.0,
2888,43,550.7099999999809_41239,18.0,female,ts-trial-digit-span,ts-trial,77.0,339472.56,0.0,1.0,,1442.7999999999884,1.0,SS-DS,2.0,
2889,44,550.7099999999809_41239,18.0,female,ts-trial-digit-span,ts-trial,79.0,344595.3,0.0,0.0,1.0,2083.4949999999953,0.0,none,2.0,
2890,45,550.7099999999809_41239,18.0,female,ts-trial-digit-span,ts-trial,81.0,350052.535,2.0,2.0,1.0,2032.5499999999884,0.0,none,2.0,
2891,46,550.7099999999809_41239,18.0,female,ts-trial-digit-span,ts-trial,83.0,354869.21,0.0,0.0,1.0,2977.4649999999674,0.0,none,2.0,
2892,47,550.7099999999809_41239,18.0,female,ts-trial-digit-span,ts-trial,85.0,360559.475,,2.0,,,0.0,none,2.0,
2893,48,550.7099999999809_41239,18.0,female,ts-trial-digit-span,ts-trial,87.0,365977.275,1.0,1.0,1.0,2359.335000000021,0.0,none,2.0,
3096,39,569.4950000033714_22620,19.0,Female,ts-trial-digit-span,ts-trial,71.0,258451.005,0.0,0.0,1.0,2400.834999999992,1.0,SS-DS,2.0,
3097,40,569.4950000033714_22620,19.0,Female,ts-trial-digit-span,ts-trial,73.0,263966.88,2.0,2.0,1.0,2667.640000000014,0.0,none,2.0,
3098,41,569.4950000033714_22620,19.0,Female,ts-trial-digit-span,ts-trial,75.0,269139.075,2.0,2.0,1.0,1645.8949999999604,0.0,none,2.0,
3099,42,569.4950000033714_22620,19.0,Female,ts-trial-digit-span,ts-trial,77.0,274752.32,2.0,2.0,1.0,2667.9099999999744,0.0,none,2.0,
3100,43,569.4950000033714_22620,19.0,Female,ts-trial-digit-span,ts-trial,79.0,279948.545,1.0,1.0,1.0,1493.2300000000396,0.0,none,2.0,
3101,44,569.4950000033714_22620,19.0,Female,ts-trial-digit-span,ts-trial,81.0,284963.58,1.0,1.0,1.0,2541.125,0.0,none,2.0,
2050,52,611.2100000027567_97917,19.0,male,ts-trial-digit-span,ts-trial,93.0,333530.945,,1.0,,,1.0,SR-DS,2.0,
2051,53,611.2100000027567_97917,19.0,male,ts-trial-digit-span,ts-trial,95.0,339282.615,2.0,2.0,1.0,1225.6749999999884,0.0,none,2.0,
2052,54,611.2100000027567_97917,19.0,male,ts-trial-digit-span,ts-trial,97.0,344722.985,2.0,0.0,,2310.0050000000047,0.0,none,2.0,
2053,55,611.2100000027567_97917,19.0,male,ts-trial-digit-span,ts-trial,99.0,349925.815,0.0,0.0,1.0,1794.0650000000023,0.0,none,2.0,
2054,56,611.2100000027567_97917,19.0,male,ts-trial-digit-span,ts-trial,101.0,355031.09,,2.0,,,0.0,none,2.0,
2055,57,611.2100000027567_97917,19.0,male,ts-trial-digit-span,ts-trial,103.0,360658.265,0.0,0.0,1.0,1161.8400000000256,0.0,none,2.0,
4532,44,755.2750000031665_40766,19.0,Female,ts-trial-digit-span,ts-trial,79.0,300505.54,0.0,0.0,1.0,1378.9349999999977,1.0,SS-DS,2.0,
4533,45,755.2750000031665_40766,19.0,Female,ts-trial-digit-span,ts-trial,81.0,306218.065,0.0,0.0,1.0,1902.3549999999814,0.0,none,2.0,
4534,46,755.2750000031665_40766,19.0,Female,ts-trial-digit-span,ts-trial,83.0,311332.27,2.0,0.0,,1650.5,0.0,none,2.0,
4535,47,755.2750000031665_40766,19.0,Female,ts-trial-digit-span,ts-trial,85.0,316376.33,0.0,0.0,1.0,1498.8800000000047,0.0,none,2.0,
4536,48,755.2750000031665_40766,19.0,Female,ts-trial-digit-span,ts-trial,87.0,321425.835,0.0,0.0,1.0,2641.4700000000303,0.0,none,2.0,
4537,49,755.2750000031665_40766,19.0,Female,ts-trial-digit-span,ts-trial,89.0,326620.3,0.0,1.0,,1668.015000000014,0.0,none,2.0,
247,33,831.5449999936391_42874,21.0,female,ts-trial-digit-span,ts-trial,59.0,250163.275,,1.0,,,1.0,SS-DS,2.0,
249,34,831.5449999936391_42874,21.0,female,ts-trial-digit-span,ts-trial,61.0,255883.61,1.0,1.0,1.0,1481.0599999999977,0.0,none,2.0,
251,35,831.5449999936391_42874,21.0,female,ts-trial-digit-span,ts-trial,63.0,261332.49,2.0,1.0,,2369.4249999999884,0.0,none,2.0,
253,36,831.5449999936391_42874,21.0,female,ts-trial-digit-span,ts-trial,65.0,266862.19,1.0,1.0,1.0,1576.2900000000373,0.0,none,2.0,
254,37,831.5449999936391_42874,21.0,female,ts-trial-digit-span,ts-trial,67.0,272525.795,2.0,2.0,1.0,1993.7449999999953,0.0,none,2.0,
256,38,831.5449999936391_42874,21.0,female,ts-trial-digit-span,ts-trial,69.0,278150.325,2.0,2.0,1.0,2217.6450000000186,0.0,none,2.0,
1678,29,870_66478,19.0,Female,ts-trial-digit-span,ts-trial,53.0,196924.0,1.0,2.0,,1380.0,1.0,SR-DS,2.0,
1679,30,870_66478,19.0,Female,ts-trial-digit-span,ts-trial,55.0,201757.0,0.0,1.0,,1165.0,0.0,none,2.0,
1680,31,870_66478,19.0,Female,ts-trial-digit-span,ts-trial,57.0,206655.0,0.0,0.0,1.0,1648.0,0.0,none,2.0,
1681,32,870_66478,19.0,Female,ts-trial-digit-span,ts-trial,59.0,212259.0,1.0,1.0,1.0,2260.0,0.0,none,2.0,
1682,33,870_66478,19.0,Female,ts-trial-digit-span,ts-trial,61.0,217664.0,,2.0,,,0.0,none,2.0,
1683,34,870_66478,19.0,Female,ts-trial-digit-span,ts-trial,63.0,222554.0,2.0,2.0,1.0,1667.0,0.0,none,2.0,
1472,19,961_63147,19.0,Female,ts-trial-digit-span,ts-trial,35.0,180998.0,,0.0,,,1.0,SS-DS,2.0,
1473,20,961_63147,19.0,Female,ts-trial-digit-span,ts-trial,37.0,186129.0,2.0,0.0,,2295.0,0.0,none,2.0,
1474,21,961_63147,19.0,Female,ts-trial-digit-span,ts-trial,39.0,191332.0,0.0,1.0,,1422.0,0.0,none,2.0,
1475,22,961_63147,19.0,Female,ts-trial-digit-span,ts-trial,41.0,196355.0,2.0,2.0,1.0,2321.0,0.0,none,2.0,
1476,23,961_63147,19.0,Female,ts-trial-digit-span,ts-trial,43.0,201627.0,0.0,1.0,,2795.0,0.0,none,2.0,
1477,24,961_63147,19.0,Female,ts-trial-digit-span,ts-trial,45.0,207339.0,2.0,2.0,1.0,2701.0,0.0,none,2.0,
1478,25,961_63147,19.0,Female,ts-trial-digit-span,ts-trial,47.0,212474.0,0.0,0.0,1.0,2084.0,0.0,none,2.0,935.0350000000035
1299,53,1152.5099999271333_59120,20.0,Female,ts-trial-digit-span,ts-trial,95.0,313506.91,1.0,1.0,1.0,839.7000000000116,1.0,SS-DS,3.0,
1300,54,1152.5099999271333_59120,20.0,Female,ts-trial-digit-span,ts-trial,97.0,318750.215,0.0,0.0,1.0,982.2250000000349,0.0,none,3.0,
1301,55,1152.5099999271333_59120,20.0,Female,ts-trial-digit-span,ts-trial,99.0,323635.765,2.0,2.0,1.0,1110.2949999999837,0.0,none,3.0,
1302,56,1152.5099999271333_59120,20.0,Female,ts-trial-digit-span,ts-trial,101.0,329129.51,1.0,1.0,1.0,825.6500000000233,0.0,none,3.0,
1303,57,1152.5099999271333_59120,20.0,Female,ts-trial-digit-span,ts-trial,103.0,334305.9,0.0,0.0,1.0,895.5,0.0,none,3.0,
1304,58,1152.5099999271333_59120,20.0,Female,ts-trial-digit-span,ts-trial,105.0,339521.035,0.0,0.0,1.0,1994.2000000000116,0.0,none,3.0,
1305,59,1152.5099999271333_59120,20.0,Female,ts-trial-digit-span,ts-trial,107.0,344861.525,0.0,0.0,1.0,933.9899999999907,0.0,none,3.0,
1306,60,1152.5099999271333_59120,20.0,Female,ts-trial-digit-span,ts-trial,109.0,349941.785,0.0,0.0,1.0,1153.1049999999814,0.0,none,3.0,
1307,61,1152.5099999271333_59120,20.0,Female,ts-trial-digit-span,ts-trial,111.0,355517.775,1.0,1.0,1.0,815.3849999999511,0.0,none,3.0,
3721,37,1168.1700000001456_40690,20.0,Male,ts-trial-digit-span,ts-trial,67.0,267364.305,1.0,1.0,1.0,2669.9249999999884,1.0,SR-DS,3.0,
3722,38,1168.1700000001456_40690,20.0,Male,ts-trial-digit-span,ts-trial,69.0,272260.94,1.0,1.0,1.0,1643.015000000014,0.0,none,3.0,
3723,39,1168.1700000001456_40690,20.0,Male,ts-trial-digit-span,ts-trial,71.0,277638.675,0.0,0.0,1.0,1633.484999999986,0.0,none,3.0,
3724,40,1168.1700000001456_40690,20.0,Male,ts-trial-digit-span,ts-trial,73.0,282866.65,1.0,1.0,1.0,1436.4799999999814,0.0,none,3.0,
3725,41,1168.1700000001456_40690,20.0,Male,ts-trial-digit-span,ts-trial,75.0,288122.65,0.0,0.0,1.0,1092.5800000000163,0.0,none,3.0,
3726,42,1168.1700000001456_40690,20.0,Male,ts-trial-digit-span,ts-trial,77.0,293311.825,1.0,1.0,1.0,1936.289999999979,0.0,none,3.0,
3727,43,1168.1700000001456_40690,20.0,Male,ts-trial-digit-span,ts-trial,79.0,298137.87,0.0,0.0,1.0,2294.289999999979,0.0,none,3.0,
3728,44,1168.1700000001456_40690,20.0,Male,ts-trial-digit-span,ts-trial,81.0,303518.56,0.0,1.0,,1834.640000000014,0.0,none,3.0,
2667,36,1273.4650000929832_33389,22.0,female,ts-trial-digit-span,ts-trial,65.0,461683.745,0.0,2.0,,1227.8850000000093,1.0,SR-DS,3.0,
2668,37,1273.4650000929832_33389,22.0,female,ts-trial-digit-span,ts-trial,67.0,467245.855,1.0,2.0,,2137.2699999999604,0.0,none,3.0,
2669,38,1273.4650000929832_33389,22.0,female,ts-trial-digit-span,ts-trial,69.0,472155.03,0.0,1.0,,923.7299999999814,0.0,none,3.0,
2670,39,1273.4650000929832_33389,22.0,female,ts-trial-digit-span,ts-trial,71.0,477363.25,2.0,2.0,1.0,929.6749999999884,0.0,none,3.0,
2671,40,1273.4650000929832_33389,22.0,female,ts-trial-digit-span,ts-trial,73.0,482985.445,0.0,1.0,,1581.75,0.0,none,3.0,
2672,41,1273.4650000929832_33389,22.0,female,ts-trial-digit-span,ts-trial,75.0,487885.075,0.0,0.0,1.0,977.804999999993,0.0,none,3.0,
2673,42,1273.4650000929832_33389,22.0,female,ts-trial-digit-span,ts-trial,77.0,493105.97,1.0,1.0,1.0,1946.6350000000093,0.0,none,3.0,
644,48,1718.75_45854,19.0,Female,ts-trial-digit-span,ts-trial,87.0,317430.35,0.0,2.0,,1662.3949999999604,1.0,SS-DS,3.0,
646,49,1718.75_45854,19.0,Female,ts-trial-digit-span,ts-trial,89.0,322250.905,2.0,1.0,,1805.0449999999837,0.0,none,3.0,
648,50,1718.75_45854,19.0,Female,ts-trial-digit-span,ts-trial,91.0,327402.48,2.0,2.0,1.0,931.4499999999534,0.0,none,3.0,
650,51,1718.75_45854,19.0,Female,ts-trial-digit-span,ts-trial,93.0,332335.995,1.0,1.0,1.0,1950.204999999958,0.0,none,3.0,
651,52,1718.75_45854,19.0,Female,ts-trial-digit-span,ts-trial,95.0,337581.615,2.0,2.0,1.0,1569.850000000035,0.0,none,3.0,
653,53,1718.75_45854,19.0,Female,ts-trial-digit-span,ts-trial,97.0,342645.52,2.0,2.0,1.0,2158.9249999999884,0.0,none,3.0,
655,54,1718.75_45854,19.0,Female,ts-trial-digit-span,ts-trial,99.0,348088.775,2.0,2.0,1.0,1899.8499999999767,0.0,none,3.0,
657,55,1718.75_45854,19.0,Female,ts-trial-digit-span,ts-trial,101.0,353453.745,2.0,0.0,,1794.4799999999814,0.0,none,3.0,
659,56,1718.75_45854,19.0,Female,ts-trial-digit-span,ts-trial,103.0,358272.7,1.0,1.0,1.0,2710.5100000000093,0.0,none,3.0,
4940,42,1830_2921,22.0,Male,ts-trial-digit-span,ts-trial,75.0,265460.0,1.0,1.0,1.0,1900.0,1.0,SS-DS,3.0,
4941,43,1830_2921,22.0,Male,ts-trial-digit-span,ts-trial,77.0,271225.0,,2.0,,,0.0,none,3.0,
4942,44,1830_2921,22.0,Male,ts-trial-digit-span,ts-trial,79.0,276351.0,2.0,1.0,,668.0,0.0,none,3.0,
4943,45,1830_2921,22.0,Male,ts-trial-digit-span,ts-trial,81.0,281657.0,1.0,0.0,,815.0,0.0,none,3.0,
4944,46,1830_2921,22.0,Male,ts-trial-digit-span,ts-trial,83.0,286503.0,1.0,0.0,,709.0,0.0,none,3.0,
4945,47,1830_2921,22.0,Male,ts-trial-digit-span,ts-trial,85.0,291822.0,1.0,1.0,1.0,1603.0,0.0,none,3.0,
4946,48,1830_2921,22.0,Male,ts-trial-digit-span,ts-trial,87.0,297367.0,1.0,0.0,,694.0,0.0,none,3.0,
4947,49,1830_2921,22.0,Male,ts-trial-digit-span,ts-trial,89.0,302173.0,0.0,2.0,,1814.0,0.0,none,3.0,
4948,50,1830_2921,22.0,Male,ts-trial-digit-span,ts-trial,91.0,307720.0,0.0,2.0,,466.0,0.0,none,3.0,
920,57,1975.4950000206009_98708,24.0,Female,ts-trial-digit-span,ts-trial,103.0,448759.65,0.0,0.0,1.0,2626.3800000000047,1.0,SR-DS,3.0,
922,58,1975.4950000206009_98708,24.0,Female,ts-trial-digit-span,ts-trial,105.0,453897.19,2.0,2.0,1.0,2600.7849999999744,0.0,none,3.0,
924,59,1975.4950000206009_98708,24.0,Female,ts-trial-digit-span,ts-trial,107.0,458953.295,,2.0,,,0.0,none,3.0,
925,60,1975.4950000206009_98708,24.0,Female,ts-trial-digit-span,ts-trial,109.0,463893.265,1.0,0.0,,1273.8400000000256,0.0,none,3.0,
927,61,1975.4950000206009_98708,24.0,Female,ts-trial-digit-span,ts-trial,111.0,469565.325,2.0,2.0,1.0,1978.695000000007,0.0,none,3.0,
929,62,1975.4950000206009_98708,24.0,Female,ts-trial-digit-span,ts-trial,113.0,474968.485,1.0,1.0,1.0,1794.5800000000163,0.0,none,3.0,
932,63,1975.4950000206009_98708,24.0,Female,ts-trial-digit-span,ts-trial,115.0,480268.585,2.0,0.0,,2824.4850000000442,0.0,none,3.0,
934,64,1975.4950000206009_98708,24.0,Female,ts-trial-digit-span,ts-trial,117.0,485522.21,,1.0,,,0.0,none,3.0,
3534,60,217_86855,20.0,Female,ts-trial-digit-span,ts-trial,109.0,377261.0,1.0,1.0,1.0,1578.0,1.0,SS-DS,3.0,
3535,61,217_86855,20.0,Female,ts-trial-digit-span,ts-trial,111.0,382200.0,0.0,2.0,,2441.0,0.0,none,3.0,
3536,62,217_86855,20.0,Female,ts-trial-digit-span,ts-trial,113.0,387042.0,0.0,0.0,1.0,2680.0,0.0,none,3.0,
3537,63,217_86855,20.0,Female,ts-trial-digit-span,ts-trial,115.0,392769.0,0.0,0.0,1.0,1845.0,0.0,none,3.0,
3538,64,217_86855,20.0,Female,ts-trial-digit-span,ts-trial,117.0,397730.0,1.0,0.0,,1797.0,0.0,none,3.0,
3539,65,217_86855,20.0,Female,ts-trial-digit-span,ts-trial,119.0,403461.0,0.0,0.0,1.0,2107.0,0.0,none,3.0,
3540,66,217_86855,20.0,Female,ts-trial-digit-span,ts-trial,121.0,408717.0,0.0,0.0,1.0,2884.0,0.0,none,3.0,
3931,35,232_72278,19.0,Female,ts-trial-digit-span,ts-trial,63.0,231892.0,1.0,1.0,1.0,1317.0,1.0,SS-DS,3.0,
3932,36,232_72278,19.0,Female,ts-trial-digit-span,ts-trial,65.0,236780.0,2.0,1.0,,2247.0,0.0,none,3.0,
3933,37,232_72278,19.0,Female,ts-trial-digit-span,ts-trial,67.0,242181.0,1.0,1.0,1.0,1731.0,0.0,none,3.0,
3934,38,232_72278,19.0,Female,ts-trial-digit-span,ts-trial,69.0,247881.0,2.0,2.0,1.0,2794.0,0.0,none,3.0,
3935,39,232_72278,19.0,Female,ts-trial-digit-span,ts-trial,71.0,252981.0,1.0,1.0,1.0,1794.0,0.0,none,3.0,
3936,40,232_72278,19.0,Female,ts-trial-digit-span,ts-trial,73.0,257870.0,2.0,0.0,,1340.0,0.0,none,3.0,
3937,41,232_72278,19.0,Female,ts-trial-digit-span,ts-trial,75.0,263510.0,2.0,2.0,1.0,1329.0,0.0,none,3.0,
3938,42,232_72278,19.0,Female,ts-trial-digit-span,ts-trial,77.0,269331.0,0.0,1.0,,1611.0,0.0,none,3.0,
1860,71,236.19000000007873_6858,20.0,Female ,ts-trial-digit-span,ts-trial,127.0,450665.4,0.0,0.0,1.0,2609.0400000000373,1.0,SR-DS,3.0,
1861,72,236.19000000007873_6858,20.0,Female ,ts-trial-digit-span,ts-trial,129.0,456397.77,1.0,1.0,1.0,2657.975000000035,0.0,none,3.0,
1862,73,236.19000000007873_6858,20.0,Female ,ts-trial-digit-span,ts-trial,131.0,461784.495,1.0,1.0,1.0,2366.1699999999837,0.0,none,3.0,
1863,74,236.19000000007873_6858,20.0,Female ,ts-trial-digit-span,ts-trial,133.0,467086.4,1.0,0.0,,2261.4599999999627,0.0,none,3.0,
1864,75,236.19000000007873_6858,20.0,Female ,ts-trial-digit-span,ts-trial,135.0,472781.47,0.0,0.0,1.0,2238.9899999999907,0.0,none,3.0,
1865,76,236.19000000007873_6858,20.0,Female ,ts-trial-digit-span,ts-trial,137.0,477808.905,2.0,2.0,1.0,1958.0800000000163,0.0,none,3.0,
1866,77,236.19000000007873_6858,20.0,Female ,ts-trial-digit-span,ts-trial,139.0,483133.43,2.0,2.0,1.0,2182.5499999999884,0.0,none,3.0,
380,76,251.67000001238193_90175,20.0,Female,ts-trial-digit-span,ts-trial,135.0,512183.15,1.0,1.0,1.0,1883.585000000021,1.0,SS-DS,3.0,
382,77,251.67000001238193_90175,20.0,Female,ts-trial-digit-span,ts-trial,137.0,517203.375,1.0,2.0,,2304.1549999999697,0.0,none,3.0,
384,78,251.67000001238193_90175,20.0,Female,ts-trial-digit-span,ts-trial,139.0,522318.055,1.0,0.0,,2189.249999999942,0.0,none,3.0,
385,79,251.67000001238193_90175,20.0,Female,ts-trial-digit-span,ts-trial,141.0,527745.595,2.0,2.0,1.0,1929.3800000000047,0.0,none,3.0,
387,80,251.67000001238193_90175,20.0,Female,ts-trial-digit-span,ts-trial,143.0,533370.8,0.0,2.0,,1886.5350000000326,0.0,none,3.0,
389,81,251.67000001238193_90175,20.0,Female,ts-trial-digit-span,ts-trial,145.0,538856.545,2.0,0.0,,1964.5249999999069,0.0,none,3.0,
2453,36,268.8400000006368_67932,20.0,female,ts-trial-digit-span,ts-trial,65.0,201774.11,2.0,2.0,1.0,1137.9850000000151,1.0,SR-DS,3.0,
2454,37,268.8400000006368_67932,20.0,female,ts-trial-digit-span,ts-trial,67.0,207310.485,2.0,2.0,1.0,1580.4949999999953,0.0,none,3.0,
2455,38,268.8400000006368_67932,20.0,female,ts-trial-digit-span,ts-trial,69.0,212206.41,1.0,1.0,1.0,1391.5849999999919,0.0,none,3.0,
2456,39,268.8400000006368_67932,20.0,female,ts-trial-digit-span,ts-trial,71.0,217404.965,2.0,2.0,1.0,1301.7850000000035,0.0,none,3.0,
2457,40,268.8400000006368_67932,20.0,female,ts-trial-digit-span,ts-trial,73.0,223013.835,1.0,1.0,1.0,1086.2950000000128,0.0,none,3.0,
2458,41,268.8400000006368_67932,20.0,female,ts-trial-digit-span,ts-trial,75.0,227900.81,2.0,0.0,,1365.7699999999895,0.0,none,3.0,
2459,42,268.8400000006368_67932,20.0,female,ts-trial-digit-span,ts-trial,77.0,233108.585,1.0,1.0,1.0,1471.2999999999884,0.0,none,3.0,
42,43,283.00000000000006_59779,20.0,Female,ts-trial-digit-span,ts-trial,77.0,292672.0,0.0,1.0,,2413.0,1.0,SS-DS,3.0,
43,44,283.00000000000006_59779,20.0,Female,ts-trial-digit-span,ts-trial,79.0,297651.0,2.0,2.0,1.0,1731.0,0.0,none,3.0,
44,45,283.00000000000006_59779,20.0,Female,ts-trial-digit-span,ts-trial,81.0,302954.0,2.0,0.0,,1322.0,0.0,none,3.0,
45,46,283.00000000000006_59779,20.0,Female,ts-trial-digit-span,ts-trial,83.0,307955.0,0.0,0.0,1.0,2421.0,0.0,none,3.0,
46,47,283.00000000000006_59779,20.0,Female,ts-trial-digit-span,ts-trial,85.0,313188.0,1.0,2.0,,2204.0,0.0,none,3.0,
47,48,283.00000000000006_59779,20.0,Female,ts-trial-digit-span,ts-trial,87.0,318772.0,1.0,1.0,1.0,1876.0,0.0,none,3.0,
48,49,283.00000000000006_59779,20.0,Female,ts-trial-digit-span,ts-trial,89.0,324110.0,2.0,1.0,,1355.0,0.0,none,3.0,
2267,60,293.7149999997928_80595,20.0,Female,ts-trial-digit-span,ts-trial,109.0,391655.29,2.0,1.0,,2564.1849999999977,1.0,SS-DS,3.0,
2268,61,293.7149999997928_80595,20.0,Female,ts-trial-digit-span,ts-trial,111.0,396597.175,2.0,2.0,1.0,1570.5250000000233,0.0,none,3.0,
2269,62,293.7149999997928_80595,20.0,Female,ts-trial-digit-span,ts-trial,113.0,401450.925,0.0,0.0,1.0,1287.0999999999767,0.0,none,3.0,
2270,63,293.7149999997928_80595,20.0,Female,ts-trial-digit-span,ts-trial,115.0,407185.43,0.0,0.0,1.0,1330.734999999986,0.0,none,3.0,
2271,64,293.7149999997928_80595,20.0,Female,ts-trial-digit-span,ts-trial,117.0,412156.44,0.0,0.0,1.0,1912.6350000000093,0.0,none,3.0,
2272,65,293.7149999997928_80595,20.0,Female,ts-trial-digit-span,ts-trial,119.0,417897.095,0.0,0.0,1.0,1491.9100000000326,0.0,none,3.0,
2273,66,293.7149999997928_80595,20.0,Female,ts-trial-digit-span,ts-trial,121.0,423163.95,0.0,0.0,1.0,1345.844999999972,0.0,none,3.0,
4140,68,316_38703,21.0,Female,ts-trial-digit-span,ts-trial,123.0,427945.0,2.0,2.0,1.0,2031.0,1.0,SS-DS,3.0,
4141,69,316_38703,21.0,Female,ts-trial-digit-span,ts-trial,125.0,433044.0,0.0,0.0,1.0,1666.0,0.0,none,3.0,
4142,70,316_38703,21.0,Female,ts-trial-digit-span,ts-trial,127.0,437850.0,2.0,1.0,,2109.0,0.0,none,3.0,
4143,71,316_38703,21.0,Female,ts-trial-digit-span,ts-trial,129.0,442884.0,2.0,2.0,1.0,2119.0,0.0,none,3.0,
4144,72,316_38703,21.0,Female,ts-trial-digit-span,ts-trial,131.0,447828.0,0.0,0.0,1.0,2045.0,0.0,none,3.0,
4145,73,316_38703,21.0,Female,ts-trial-digit-span,ts-trial,133.0,453539.0,1.0,1.0,1.0,2117.0,0.0,none,3.0,
4146,74,316_38703,21.0,Female,ts-trial-digit-span,ts-trial,135.0,458869.0,2.0,2.0,1.0,1633.0,0.0,none,3.0,
4147,75,316_38703,21.0,Female,ts-trial-digit-span,ts-trial,137.0,464392.0,1.0,1.0,1.0,2154.0,0.0,none,3.0,
3343,81,394_3084,20.0,female,ts-trial-digit-span,ts-trial,145.0,482259.0,0.0,1.0,,2305.0,1.0,SS-DS,3.0,
3344,82,394_3084,20.0,female,ts-trial-digit-span,ts-trial,147.0,487481.0,1.0,1.0,1.0,2499.0,0.0,none,3.0,
3345,83,394_3084,20.0,female,ts-trial-digit-span,ts-trial,149.0,493155.0,0.0,0.0,1.0,1543.0,0.0,none,3.0,
3346,84,394_3084,20.0,female,ts-trial-digit-span,ts-trial,151.0,498591.0,0.0,0.0,1.0,1617.0,0.0,none,3.0,
3347,85,394_3084,20.0,female,ts-trial-digit-span,ts-trial,153.0,503560.0,2.0,2.0,1.0,2380.0,0.0,none,3.0,
3348,86,394_3084,20.0,female,ts-trial-digit-span,ts-trial,155.0,509192.0,1.0,0.0,,2426.0,0.0,none,3.0,
3349,87,394_3084,20.0,female,ts-trial-digit-span,ts-trial,157.0,514055.0,0.0,0.0,1.0,1730.0,0.0,none,3.0,
3350,88,394_3084,20.0,female,ts-trial-digit-span,ts-trial,159.0,519334.0,2.0,2.0,1.0,1492.0,0.0,none,3.0,
4756,63,452.40499999999884_3732,20.0,Female,ts-trial-digit-span,ts-trial,113.0,399522.375,2.0,2.0,1.0,2526.585000000021,1.0,SR-DS,3.0,
4757,64,452.40499999999884_3732,20.0,Female,ts-trial-digit-span,ts-trial,115.0,404502.31,0.0,0.0,1.0,1510.3250000000116,0.0,none,3.0,
4758,65,452.40499999999884_3732,20.0,Female,ts-trial-digit-span,ts-trial,117.0,409369.975,0.0,2.0,,2636.9000000000233,0.0,none,3.0,
4759,66,452.40499999999884_3732,20.0,Female,ts-trial-digit-span,ts-trial,119.0,414558.755,2.0,1.0,,1272.8249999999534,0.0,none,3.0,
4760,67,452.40499999999884_3732,20.0,Female,ts-trial-digit-span,ts-trial,121.0,420148.58,1.0,1.0,1.0,2294.3150000000023,0.0,none,3.0,
4761,68,452.40499999999884_3732,20.0,Female,ts-trial-digit-span,ts-trial,123.0,424924.8,2.0,1.0,,2027.0449999999837,0.0,none,3.0,
4762,69,452.40499999999884_3732,20.0,Female,ts-trial-digit-span,ts-trial,125.0,430333.53,2.0,0.0,,1701.9899999999907,0.0,none,3.0,
4763,70,452.40499999999884_3732,20.0,Female,ts-trial-digit-span,ts-trial,127.0,435464.12,2.0,2.0,1.0,1479.3549999999814,0.0,none,3.0,
4764,71,452.40499999999884_3732,20.0,Female,ts-trial-digit-span,ts-trial,129.0,440787.775,2.0,2.0,1.0,1259.8850000000093,0.0,none,3.0,
4340,60,4597.265000003972_15055,18.0,Female,ts-trial-digit-span,ts-trial,107.0,403610.64,,0.0,,,1.0,SR-DS,3.0,
4341,61,4597.265000003972_15055,18.0,Female,ts-trial-digit-span,ts-trial,109.0,408572.875,2.0,1.0,,2697.805000000051,0.0,none,3.0,
4342,62,4597.265000003972_15055,18.0,Female,ts-trial-digit-span,ts-trial,111.0,414198.76,1.0,1.0,1.0,2268.6900000000023,0.0,none,3.0,
4343,63,4597.265000003972_15055,18.0,Female,ts-trial-digit-span,ts-trial,113.0,419159.71,2.0,2.0,1.0,2844.6750000000466,0.0,none,3.0,
4344,64,4597.265000003972_15055,18.0,Female,ts-trial-digit-span,ts-trial,115.0,424124.395,2.0,2.0,1.0,1863.2600000000093,0.0,none,3.0,
4345,65,4597.265000003972_15055,18.0,Female,ts-trial-digit-span,ts-trial,117.0,429183.395,0.0,0.0,1.0,2837.7449999999953,0.0,none,3.0,
4346,66,4597.265000003972_15055,18.0,Female,ts-trial-digit-span,ts-trial,119.0,434706.055,,0.0,,,0.0,none,3.0,
4347,67,4597.265000003972_15055,18.0,Female,ts-trial-digit-span,ts-trial,121.0,439816.57,,0.0,,,0.0,none,3.0,
986,79,462.85000001080334_70250,21.0,Female,ts-trial-digit-span,ts-trial,141.0,494002.935,1.0,1.0,1.0,1745.5250000000233,1.0,SR-DS,3.0,
988,80,462.85000001080334_70250,21.0,Female,ts-trial-digit-span,ts-trial,143.0,499681.685,1.0,1.0,1.0,1655.1549999999697,0.0,none,3.0,
990,81,462.85000001080334_70250,21.0,Female,ts-trial-digit-span,ts-trial,145.0,505248.57,2.0,2.0,1.0,2619.0299999999697,0.0,none,3.0,
992,82,462.85000001080334_70250,21.0,Female,ts-trial-digit-span,ts-trial,147.0,510344.15,1.0,1.0,1.0,2015.5800000000163,0.0,none,3.0,
993,83,462.85000001080334_70250,21.0,Female,ts-trial-digit-span,ts-trial,149.0,515653.665,0.0,0.0,1.0,2481.25,0.0,none,3.0,
995,84,462.85000001080334_70250,21.0,Female,ts-trial-digit-span,ts-trial,151.0,520583.795,0.0,0.0,1.0,2265.2850000000326,0.0,none,3.0,
997,85,462.85000001080334_70250,21.0,Female,ts-trial-digit-span,ts-trial,153.0,525996.26,2.0,2.0,1.0,1583.1350000000093,0.0,none,3.0,
999,86,462.85000001080334_70250,21.0,Female,ts-trial-digit-span,ts-trial,155.0,531513.47,,0.0,,,0.0,none,3.0,
2913,68,550.7099999999809_41239,18.0,female,ts-trial-digit-span,ts-trial,121.0,478565.88,0.0,2.0,,1378.600000000035,1.0,SS-DS,3.0,
2914,69,550.7099999999809_41239,18.0,female,ts-trial-digit-span,ts-trial,123.0,483360.265,0.0,2.0,,2638.1900000000023,0.0,none,3.0,
2915,70,550.7099999999809_41239,18.0,female,ts-trial-digit-span,ts-trial,125.0,488626.75,1.0,1.0,1.0,1903.7149999999674,0.0,none,3.0,
2916,71,550.7099999999809_41239,18.0,female,ts-trial-digit-span,ts-trial,127.0,494115.83,0.0,0.0,1.0,1476.6300000000047,0.0,none,3.0,
2917,72,550.7099999999809_41239,18.0,female,ts-trial-digit-span,ts-trial,129.0,498961.92,0.0,0.0,1.0,1662.7000000000116,0.0,none,3.0,
2918,73,550.7099999999809_41239,18.0,female,ts-trial-digit-span,ts-trial,131.0,504260.415,1.0,1.0,1.0,2188.9049999999697,0.0,none,3.0,
2919,74,550.7099999999809_41239,18.0,female,ts-trial-digit-span,ts-trial,133.0,509869.72,2.0,2.0,1.0,1944.4099999999744,0.0,none,3.0,
2920,75,550.7099999999809_41239,18.0,female,ts-trial-digit-span,ts-trial,135.0,515541.285,1.0,1.0,1.0,2031.2699999999604,0.0,none,3.0,
3117,60,569.4950000033714_22620,19.0,Female,ts-trial-digit-span,ts-trial,107.0,381750.91,0.0,0.0,1.0,1598.1500000000233,1.0,SR-DS,3.0,
3118,61,569.4950000033714_22620,19.0,Female,ts-trial-digit-span,ts-trial,109.0,387466.575,0.0,0.0,1.0,1792.140000000014,0.0,none,3.0,
3119,62,569.4950000033714_22620,19.0,Female,ts-trial-digit-span,ts-trial,111.0,392360.785,1.0,2.0,,2692.4249999999884,0.0,none,3.0,
3120,63,569.4950000033714_22620,19.0,Female,ts-trial-digit-span,ts-trial,113.0,397929.97,0.0,0.0,1.0,2592.9700000000303,0.0,none,3.0,
3121,64,569.4950000033714_22620,19.0,Female,ts-trial-digit-span,ts-trial,115.0,402752.945,1.0,1.0,1.0,2139.875,0.0,none,3.0,
3122,65,569.4950000033714_22620,19.0,Female,ts-trial-digit-span,ts-trial,117.0,408168.535,0.0,0.0,1.0,2978.7799999999697,0.0,none,3.0,
3123,66,569.4950000033714_22620,19.0,Female,ts-trial-digit-span,ts-trial,119.0,413810.57,0.0,2.0,,1639.9949999999953,0.0,none,3.0,
3124,67,569.4950000033714_22620,19.0,Female,ts-trial-digit-span,ts-trial,121.0,419395.01,0.0,0.0,1.0,2481.4649999999674,0.0,none,3.0,
2066,68,611.2100000027567_97917,19.0,male,ts-trial-digit-span,ts-trial,121.0,420620.53,2.0,0.0,,2010.2399999999907,1.0,SS-DS,3.0,
2067,69,611.2100000027567_97917,19.0,male,ts-trial-digit-span,ts-trial,123.0,425693.25,,2.0,,,0.0,none,3.0,
2068,70,611.2100000027567_97917,19.0,male,ts-trial-digit-span,ts-trial,125.0,431331.13,0.0,0.0,1.0,1825.3349999999627,0.0,none,3.0,
2069,71,611.2100000027567_97917,19.0,male,ts-trial-digit-span,ts-trial,127.0,437018.71,0.0,0.0,1.0,1449.8099999999977,0.0,none,3.0,
2070,72,611.2100000027567_97917,19.0,male,ts-trial-digit-span,ts-trial,129.0,442152.98,1.0,1.0,1.0,2726.1300000000047,0.0,none,3.0,
2071,73,611.2100000027567_97917,19.0,male,ts-trial-digit-span,ts-trial,131.0,447047.985,1.0,0.0,,2116.1049999999814,0.0,none,3.0,
2072,74,611.2100000027567_97917,19.0,male,ts-trial-digit-span,ts-trial,133.0,452450.44,2.0,2.0,1.0,2184.7450000000536,0.0,none,3.0,
4569,81,755.2750000031665_40766,19.0,Female,ts-trial-digit-span,ts-trial,143.0,513216.245,0.0,1.0,,2612.8450000000303,1.0,SS-DS,3.0,
4570,82,755.2750000031665_40766,19.0,Female,ts-trial-digit-span,ts-trial,145.0,518959.52,1.0,1.0,1.0,2945.3499999999767,0.0,none,3.0,
4571,83,755.2750000031665_40766,19.0,Female,ts-trial-digit-span,ts-trial,147.0,524299.315,2.0,2.0,1.0,2731.5999999999767,0.0,none,3.0,
4572,84,755.2750000031665_40766,19.0,Female,ts-trial-digit-span,ts-trial,149.0,529248.56,,0.0,,,0.0,none,3.0,
4573,85,755.2750000031665_40766,19.0,Female,ts-trial-digit-span,ts-trial,151.0,534225.88,0.0,2.0,,1407.0,0.0,none,3.0,
4574,86,755.2750000031665_40766,19.0,Female,ts-trial-digit-span,ts-trial,153.0,539007.7,1.0,1.0,1.0,2082.185000000056,0.0,none,3.0,
4575,87,755.2750000031665_40766,19.0,Female,ts-trial-digit-span,ts-trial,155.0,543873.575,2.0,2.0,1.0,1420.7449999999953,0.0,none,3.0,
276,48,831.5449999936391_42874,21.0,female,ts-trial-digit-span,ts-trial,85.0,330550.24,1.0,2.0,,2514.679999999993,1.0,SR-DS,3.0,
278,49,831.5449999936391_42874,21.0,female,ts-trial-digit-span,ts-trial,87.0,335741.965,2.0,2.0,1.0,2538.780000000028,0.0,none,3.0,
280,50,831.5449999936391_42874,21.0,female,ts-trial-digit-span,ts-trial,89.0,340807.73,1.0,0.0,,2793.1699999999837,0.0,none,3.0,
281,51,831.5449999936391_42874,21.0,female,ts-trial-digit-span,ts-trial,91.0,346160.29,2.0,2.0,1.0,1979.0650000000023,0.0,none,3.0,
283,52,831.5449999936391_42874,21.0,female,ts-trial-digit-span,ts-trial,93.0,351634.94,0.0,0.0,1.0,1921.6350000000093,0.0,none,3.0,
285,53,831.5449999936391_42874,21.0,female,ts-trial-digit-span,ts-trial,95.0,356531.98,,1.0,,,0.0,none,3.0,
287,54,831.5449999936391_42874,21.0,female,ts-trial-digit-span,ts-trial,97.0,361813.075,,2.0,,,0.0,none,3.0,
288,55,831.5449999936391_42874,21.0,female,ts-trial-digit-span,ts-trial,99.0,366734.46,2.0,0.0,,2714.1149999999907,0.0,none,3.0,
291,56,831.5449999936391_42874,21.0,female,ts-trial-digit-span,ts-trial,101.0,372451.12,1.0,1.0,1.0,2272.820000000007,0.0,none,3.0,
1701,52,870_66478,19.0,Female,ts-trial-digit-span,ts-trial,93.0,325418.0,1.0,0.0,,1277.0,1.0,SR-DS,3.0,
1702,53,870_66478,19.0,Female,ts-trial-digit-span,ts-trial,95.0,330916.0,1.0,0.0,,1496.0,0.0,none,3.0,
1703,54,870_66478,19.0,Female,ts-trial-digit-span,ts-trial,97.0,335781.0,1.0,0.0,,1462.0,0.0,none,3.0,
1704,55,870_66478,19.0,Female,ts-trial-digit-span,ts-trial,99.0,341228.0,0.0,2.0,,1717.0,0.0,none,3.0,
1705,56,870_66478,19.0,Female,ts-trial-digit-span,ts-trial,101.0,346335.0,2.0,1.0,,2376.0,0.0,none,3.0,
1706,57,870_66478,19.0,Female,ts-trial-digit-span,ts-trial,103.0,351998.0,2.0,0.0,,1681.0,0.0,none,3.0,
1707,58,870_66478,19.0,Female,ts-trial-digit-span,ts-trial,105.0,357127.0,1.0,2.0,,1618.0,0.0,none,3.0,
1708,59,870_66478,19.0,Female,ts-trial-digit-span,ts-trial,107.0,362281.0,0.0,2.0,,1483.0,0.0,none,3.0,
1507,54,961_63147,19.0,Female,ts-trial-digit-span,ts-trial,97.0,387693.0,1.0,1.0,1.0,2194.0,1.0,SR-DS,3.0,
1508,55,961_63147,19.0,Female,ts-trial-digit-span,ts-trial,99.0,392570.0,0.0,0.0,1.0,2497.0,0.0,none,3.0,
1509,56,961_63147,19.0,Female,ts-trial-digit-span,ts-trial,101.0,398180.0,2.0,2.0,1.0,1819.0,0.0,none,3.0,
1510,57,961_63147,19.0,Female,ts-trial-digit-span,ts-trial,103.0,403943.0,,0.0,,,0.0,none,3.0,
1511,58,961_63147,19.0,Female,ts-trial-digit-span,ts-trial,105.0,409132.0,2.0,0.0,,1471.0,0.0,none,3.0,
1512,59,961_63147,19.0,Female,ts-trial-digit-span,ts-trial,107.0,414426.0,2.0,2.0,1.0,2275.0,0.0,none,3.0,
1513,60,961_63147,19.0,Female,ts-trial-digit-span,ts-trial,109.0,419969.0,0.0,1.0,,2399.0,0.0,none,3.0,
1514,61,961_63147,19.0,Female,ts-trial-digit-span,ts-trial,111.0,424750.0,0.0,0.0,1.0,2605.0,0.0,none,3.0,839.7000000000116
1316,70,1152.5099999271333_59120,20.0,Female,ts-trial-digit-span,ts-trial,125.0,404952.41,2.0,2.0,1.0,1166.460000000021,1.0,SR-DS,4.0,
1317,71,1152.5099999271333_59120,20.0,Female,ts-trial-digit-span,ts-trial,127.0,410335.825,0.0,0.0,1.0,822.9349999999977,0.0,none,4.0,
1318,72,1152.5099999271333_59120,20.0,Female,ts-trial-digit-span,ts-trial,129.0,415598.18,2.0,2.0,1.0,1513.7399999999907,0.0,none,4.0,
1319,73,1152.5099999271333_59120,20.0,Female,ts-trial-digit-span,ts-trial,131.0,421058.3,2.0,2.0,1.0,1223.0499999999884,0.0,none,4.0,
1320,74,1152.5099999271333_59120,20.0,Female,ts-trial-digit-span,ts-trial,133.0,426291.89,2.0,2.0,1.0,1103.5950000000303,0.0,none,4.0,
1321,75,1152.5099999271333_59120,20.0,Female,ts-trial-digit-span,ts-trial,135.0,431567.99,0.0,0.0,1.0,967.0750000000116,0.0,none,4.0,
3766,82,1168.1700000001456_40690,20.0,Male,ts-trial-digit-span,ts-trial,147.0,531447.35,1.0,1.0,1.0,2337.9400000000605,1.0,SS-DS,4.0,
3767,83,1168.1700000001456_40690,20.0,Male,ts-trial-digit-span,ts-trial,149.0,536446.82,2.0,0.0,,2989.3699999999953,0.0,none,4.0,
3768,84,1168.1700000001456_40690,20.0,Male,ts-trial-digit-span,ts-trial,151.0,541234.06,,2.0,,,0.0,none,4.0,
3769,85,1168.1700000001456_40690,20.0,Male,ts-trial-digit-span,ts-trial,153.0,546873.025,1.0,1.0,1.0,1351.3150000000605,0.0,none,4.0,
3770,86,1168.1700000001456_40690,20.0,Male,ts-trial-digit-span,ts-trial,155.0,551829.7,0.0,0.0,1.0,1346.655000000028,0.0,none,4.0,
3771,87,1168.1700000001456_40690,20.0,Male,ts-trial-digit-span,ts-trial,157.0,557498.665,,2.0,,,0.0,none,4.0,
3772,88,1168.1700000001456_40690,20.0,Male,ts-trial-digit-span,ts-trial,159.0,562843.305,0.0,0.0,1.0,1941.1000000000931,0.0,none,4.0,
3773,89,1168.1700000001456_40690,20.0,Male,ts-trial-digit-span,ts-trial,161.0,568086.31,1.0,1.0,1.0,1387.2900000000373,0.0,none,4.0,
2719,88,1273.4650000929832_33389,22.0,female,ts-trial-digit-span,ts-trial,157.0,766794.55,1.0,1.0,1.0,1211.0499999999302,1.0,SS-DS,4.0,
2720,89,1273.4650000929832_33389,22.0,female,ts-trial-digit-span,ts-trial,159.0,771595.395,0.0,0.0,1.0,1278.9599999999627,0.0,none,4.0,
2721,90,1273.4650000929832_33389,22.0,female,ts-trial-digit-span,ts-trial,161.0,776958.935,1.0,1.0,1.0,1177.2750000000233,0.0,none,4.0,
2722,91,1273.4650000929832_33389,22.0,female,ts-trial-digit-span,ts-trial,163.0,782660.34,0.0,2.0,,1221.9199999999255,0.0,none,4.0,
2723,92,1273.4650000929832_33389,22.0,female,ts-trial-digit-span,ts-trial,165.0,787689.89,1.0,1.0,1.0,1365.829999999958,0.0,none,4.0,
2724,93,1273.4650000929832_33389,22.0,female,ts-trial-digit-span,ts-trial,167.0,793400.235,2.0,2.0,1.0,1273.4850000001024,0.0,none,4.0,
2725,94,1273.4650000929832_33389,22.0,female,ts-trial-digit-span,ts-trial,169.0,798559.24,0.0,0.0,1.0,1296.2000000000698,0.0,none,4.0,
2726,95,1273.4650000929832_33389,22.0,female,ts-trial-digit-span,ts-trial,171.0,803745.43,0.0,0.0,1.0,1167.8400000000838,0.0,none,4.0,
698,91,1718.75_45854,19.0,Female,ts-trial-digit-span,ts-trial,163.0,567922.085,1.0,1.0,1.0,1017.875,1.0,SR-DS,4.0,
699,92,1718.75_45854,19.0,Female,ts-trial-digit-span,ts-trial,165.0,573369.41,1.0,1.0,1.0,2375.9250000000466,0.0,none,4.0,
700,93,1718.75_45854,19.0,Female,ts-trial-digit-span,ts-trial,167.0,578588.7,0.0,0.0,1.0,1470.6500000000233,0.0,none,4.0,
701,94,1718.75_45854,19.0,Female,ts-trial-digit-span,ts-trial,169.0,584120.015,1.0,1.0,1.0,1233.9500000000698,0.0,none,4.0,
702,95,1718.75_45854,19.0,Female,ts-trial-digit-span,ts-trial,171.0,589029.42,,2.0,,,0.0,none,4.0,
703,96,1718.75_45854,19.0,Female,ts-trial-digit-span,ts-trial,173.0,594661.89,1.0,1.0,1.0,1113.8300000000745,0.0,none,4.0,
4969,71,1830_2921,22.0,Male,ts-trial-digit-span,ts-trial,127.0,434909.0,1.0,1.0,1.0,945.0,1.0,SS-DS,4.0,
4970,72,1830_2921,22.0,Male,ts-trial-digit-span,ts-trial,129.0,439717.0,1.0,2.0,,2001.0,0.0,none,4.0,
4971,73,1830_2921,22.0,Male,ts-trial-digit-span,ts-trial,131.0,445083.0,2.0,2.0,1.0,1711.0,0.0,none,4.0,
4972,74,1830_2921,22.0,Male,ts-trial-digit-span,ts-trial,133.0,450530.0,2.0,0.0,,642.0,0.0,none,4.0,
4973,75,1830_2921,22.0,Male,ts-trial-digit-span,ts-trial,135.0,455709.0,0.0,0.0,1.0,1078.0,0.0,none,4.0,
4974,76,1830_2921,22.0,Male,ts-trial-digit-span,ts-trial,137.0,460519.0,0.0,2.0,,1949.0,0.0,none,4.0,
4975,77,1830_2921,22.0,Male,ts-trial-digit-span,ts-trial,139.0,466219.0,1.0,0.0,,684.0,0.0,none,4.0,
4976,78,1830_2921,22.0,Male,ts-trial-digit-span,ts-trial,141.0,471266.0,1.0,2.0,,740.0,0.0,none,4.0,
953,73,1975.4950000206009_98708,24.0,Female,ts-trial-digit-span,ts-trial,131.0,534804.2,1.0,1.0,1.0,1559.8349999999627,1.0,SS-DS,4.0,
955,74,1975.4950000206009_98708,24.0,Female,ts-trial-digit-span,ts-trial,133.0,540256.41,2.0,2.0,1.0,2079.719999999972,0.0,none,4.0,
956,75,1975.4950000206009_98708,24.0,Female,ts-trial-digit-span,ts-trial,135.0,545294.51,2.0,0.0,,1444.1699999999255,0.0,none,4.0,
958,76,1975.4950000206009_98708,24.0,Female,ts-trial-digit-span,ts-trial,137.0,550658.92,2.0,0.0,,2000.8800000000047,0.0,none,4.0,
960,77,1975.4950000206009_98708,24.0,Female,ts-trial-digit-span,ts-trial,139.0,555950.66,0.0,0.0,1.0,2459.609999999986,0.0,none,4.0,
962,78,1975.4950000206009_98708,24.0,Female,ts-trial-digit-span,ts-trial,141.0,560858.045,0.0,2.0,,1285.734999999986,0.0,none,4.0,
963,79,1975.4950000206009_98708,24.0,Female,ts-trial-digit-span,ts-trial,143.0,566177.505,0.0,0.0,1.0,2726.310000000056,0.0,none,4.0,
965,80,1975.4950000206009_98708,24.0,Female,ts-trial-digit-span,ts-trial,145.0,571339.845,2.0,0.0,,1841.7399999999907,0.0,none,4.0,
967,81,1975.4950000206009_98708,24.0,Female,ts-trial-digit-span,ts-trial,147.0,576444.09,2.0,2.0,1.0,1624.2900000000373,0.0,none,4.0,
3549,75,217_86855,20.0,Female,ts-trial-digit-span,ts-trial,135.0,457977.0,2.0,1.0,,973.0,1.0,SR-DS,4.0,
3550,76,217_86855,20.0,Female,ts-trial-digit-span,ts-trial,137.0,462813.0,1.0,1.0,1.0,2303.0,0.0,none,4.0,
3551,77,217_86855,20.0,Female,ts-trial-digit-span,ts-trial,139.0,467594.0,,2.0,,,0.0,none,4.0,
3552,78,217_86855,20.0,Female,ts-trial-digit-span,ts-trial,141.0,473152.0,0.0,0.0,1.0,2251.0,0.0,none,4.0,
3553,79,217_86855,20.0,Female,ts-trial-digit-span,ts-trial,143.0,478313.0,1.0,1.0,1.0,1637.0,0.0,none,4.0,
3554,80,217_86855,20.0,Female,ts-trial-digit-span,ts-trial,145.0,483324.0,0.0,2.0,,1719.0,0.0,none,4.0,
3555,81,217_86855,20.0,Female,ts-trial-digit-span,ts-trial,147.0,489030.0,1.0,1.0,1.0,853.0,0.0,none,4.0,
3950,54,232_72278,19.0,Female,ts-trial-digit-span,ts-trial,97.0,335692.0,0.0,1.0,,2303.0,1.0,SR-DS,4.0,
3951,55,232_72278,19.0,Female,ts-trial-digit-span,ts-trial,99.0,340790.0,1.0,1.0,1.0,2005.0,0.0,none,4.0,
3952,56,232_72278,19.0,Female,ts-trial-digit-span,ts-trial,101.0,346281.0,1.0,1.0,1.0,1842.0,0.0,none,4.0,
3953,57,232_72278,19.0,Female,ts-trial-digit-span,ts-trial,103.0,351321.0,1.0,1.0,1.0,1928.0,0.0,none,4.0,
3954,58,232_72278,19.0,Female,ts-trial-digit-span,ts-trial,105.0,356481.0,1.0,1.0,1.0,2651.0,0.0,none,4.0,
3955,59,232_72278,19.0,Female,ts-trial-digit-span,ts-trial,107.0,361430.0,1.0,1.0,1.0,1869.0,0.0,none,4.0,
3956,60,232_72278,19.0,Female,ts-trial-digit-span,ts-trial,109.0,366561.0,2.0,2.0,1.0,1848.0,0.0,none,4.0,
3957,61,232_72278,19.0,Female,ts-trial-digit-span,ts-trial,111.0,372231.0,1.0,1.0,1.0,2314.0,0.0,none,4.0,
3958,62,232_72278,19.0,Female,ts-trial-digit-span,ts-trial,113.0,377691.0,1.0,1.0,1.0,2229.0,0.0,none,4.0,
1903,114,236.19000000007873_6858,20.0,Female ,ts-trial-digit-span,ts-trial,200.0,697711.025,1.0,1.0,1.0,2331.0200000000186,1.0,SR-DS,4.0,
1904,115,236.19000000007873_6858,20.0,Female ,ts-trial-digit-span,ts-trial,202.0,703315.665,2.0,2.0,1.0,1931.0050000000047,0.0,none,4.0,
1905,116,236.19000000007873_6858,20.0,Female ,ts-trial-digit-span,ts-trial,204.0,708240.51,2.0,2.0,1.0,1930.3050000000512,0.0,none,4.0,
1906,117,236.19000000007873_6858,20.0,Female ,ts-trial-digit-span,ts-trial,206.0,713928.895,1.0,1.0,1.0,2473.0999999999767,0.0,none,4.0,
1907,118,236.19000000007873_6858,20.0,Female ,ts-trial-digit-span,ts-trial,208.0,719191.01,0.0,0.0,1.0,1859.6749999999302,0.0,none,4.0,
1908,119,236.19000000007873_6858,20.0,Female ,ts-trial-digit-span,ts-trial,210.0,724307.485,1.0,1.0,1.0,2027.015000000014,0.0,none,4.0,
425,100,251.67000001238193_90175,20.0,Female,ts-trial-digit-span,ts-trial,177.0,644873.84,2.0,2.0,1.0,1889.2249999999767,1.0,SS-DS,4.0,
427,101,251.67000001238193_90175,20.0,Female,ts-trial-digit-span,ts-trial,179.0,650024.265,1.0,2.0,,2559.0149999998976,0.0,none,4.0,
428,102,251.67000001238193_90175,20.0,Female,ts-trial-digit-span,ts-trial,181.0,655199.895,1.0,1.0,1.0,1659.015000000014,0.0,none,4.0,
2505,88,268.8400000006368_67932,20.0,female,ts-trial-digit-span,ts-trial,157.0,506386.485,1.0,1.0,1.0,1220.195000000007,1.0,SS-DS,4.0,
2506,89,268.8400000006368_67932,20.0,female,ts-trial-digit-span,ts-trial,159.0,511179.04,1.0,0.0,,680.6900000000023,0.0,none,4.0,
2507,90,268.8400000006368_67932,20.0,female,ts-trial-digit-span,ts-trial,161.0,516518.495,0.0,1.0,,1988.3150000000023,0.0,none,4.0,
2508,91,268.8400000006368_67932,20.0,female,ts-trial-digit-span,ts-trial,163.0,522208.315,0.0,2.0,,1432.0900000000256,0.0,none,4.0,
2509,92,268.8400000006368_67932,20.0,female,ts-trial-digit-span,ts-trial,165.0,527235.63,0.0,1.0,,2124.430000000051,0.0,none,4.0,
2510,93,268.8400000006368_67932,20.0,female,ts-trial-digit-span,ts-trial,167.0,532939.15,,2.0,,,0.0,none,4.0,
2511,94,268.8400000006368_67932,20.0,female,ts-trial-digit-span,ts-trial,169.0,538093.365,0.0,0.0,1.0,1280.0400000000373,0.0,none,4.0,
2512,95,268.8400000006368_67932,20.0,female,ts-trial-digit-span,ts-trial,171.0,543281.555,0.0,0.0,1.0,1640.5050000000047,0.0,none,4.0,
60,61,283.00000000000006_59779,20.0,Female,ts-trial-digit-span,ts-trial,109.0,394520.0,2.0,2.0,1.0,684.0,1.0,SR-DS,4.0,
61,62,283.00000000000006_59779,20.0,Female,ts-trial-digit-span,ts-trial,111.0,399302.0,2.0,0.0,,2195.0,0.0,none,4.0,
62,63,283.00000000000006_59779,20.0,Female,ts-trial-digit-span,ts-trial,113.0,404241.0,1.0,1.0,1.0,1521.0,0.0,none,4.0,
63,64,283.00000000000006_59779,20.0,Female,ts-trial-digit-span,ts-trial,115.0,409408.0,0.0,0.0,1.0,2473.0,0.0,none,4.0,
64,65,283.00000000000006_59779,20.0,Female,ts-trial-digit-span,ts-trial,117.0,415101.0,2.0,1.0,,1544.0,0.0,none,4.0,
65,66,283.00000000000006_59779,20.0,Female,ts-trial-digit-span,ts-trial,119.0,420531.0,1.0,1.0,1.0,1801.0,0.0,none,4.0,
2282,75,293.7149999997928_80595,20.0,Female,ts-trial-digit-span,ts-trial,135.0,472476.345,1.0,1.0,1.0,2155.9599999999627,1.0,SR-DS,4.0,
2283,76,293.7149999997928_80595,20.0,Female,ts-trial-digit-span,ts-trial,137.0,477319.095,1.0,1.0,1.0,1203.359999999986,0.0,none,4.0,
2284,77,293.7149999997928_80595,20.0,Female,ts-trial-digit-span,ts-trial,139.0,482108.23,2.0,2.0,1.0,1573.585000000021,0.0,none,4.0,
2285,78,293.7149999997928_80595,20.0,Female,ts-trial-digit-span,ts-trial,141.0,487675.8,0.0,0.0,1.0,1810.890000000014,0.0,none,4.0,
2286,79,293.7149999997928_80595,20.0,Female,ts-trial-digit-span,ts-trial,143.0,492843.615,1.0,1.0,1.0,1330.9100000000326,0.0,none,4.0,
2287,80,293.7149999997928_80595,20.0,Female,ts-trial-digit-span,ts-trial,145.0,497862.815,0.0,2.0,,1614.2299999999814,0.0,none,4.0,
2288,81,293.7149999997928_80595,20.0,Female,ts-trial-digit-span,ts-trial,147.0,503575.165,0.0,1.0,,1783.8450000000303,0.0,none,4.0,
4158,86,316_38703,21.0,Female,ts-trial-digit-span,ts-trial,155.0,527853.0,1.0,1.0,1.0,1810.0,1.0,SS-DS,4.0,
4159,87,316_38703,21.0,Female,ts-trial-digit-span,ts-trial,157.0,533276.0,1.0,1.0,1.0,1492.0,0.0,none,4.0,
4160,88,316_38703,21.0,Female,ts-trial-digit-span,ts-trial,159.0,538608.0,2.0,0.0,,2002.0,0.0,none,4.0,
4161,89,316_38703,21.0,Female,ts-trial-digit-span,ts-trial,161.0,544322.0,,2.0,,,0.0,none,4.0,
4162,90,316_38703,21.0,Female,ts-trial-digit-span,ts-trial,163.0,549339.0,1.0,1.0,1.0,2159.0,0.0,none,4.0,
4163,91,316_38703,21.0,Female,ts-trial-digit-span,ts-trial,165.0,554262.0,2.0,2.0,1.0,1940.0,0.0,none,4.0,
4164,92,316_38703,21.0,Female,ts-trial-digit-span,ts-trial,167.0,559746.0,0.0,0.0,1.0,2147.0,0.0,none,4.0,
4165,93,316_38703,21.0,Female,ts-trial-digit-span,ts-trial,169.0,565421.0,2.0,2.0,1.0,2074.0,0.0,none,4.0,
4166,94,316_38703,21.0,Female,ts-trial-digit-span,ts-trial,171.0,570595.0,,1.0,,,0.0,none,4.0,
3360,98,394_3084,20.0,female,ts-trial-digit-span,ts-trial,175.0,571850.0,2.0,2.0,1.0,1432.0,1.0,SR-DS,4.0,
3361,99,394_3084,20.0,female,ts-trial-digit-span,ts-trial,177.0,577542.0,2.0,2.0,1.0,2365.0,0.0,none,4.0,
3362,100,394_3084,20.0,female,ts-trial-digit-span,ts-trial,179.0,582971.0,0.0,0.0,1.0,2831.0,0.0,none,4.0,
3363,101,394_3084,20.0,female,ts-trial-digit-span,ts-trial,181.0,588543.0,2.0,2.0,1.0,2623.0,0.0,none,4.0,
3364,102,394_3084,20.0,female,ts-trial-digit-span,ts-trial,183.0,594292.0,,1.0,,,0.0,none,4.0,
3365,103,394_3084,20.0,female,ts-trial-digit-span,ts-trial,185.0,599087.0,2.0,2.0,1.0,1358.0,0.0,none,4.0,
3366,104,394_3084,20.0,female,ts-trial-digit-span,ts-trial,187.0,603865.0,1.0,1.0,1.0,2412.0,0.0,none,4.0,
4781,88,452.40499999999884_3732,20.0,Female,ts-trial-digit-span,ts-trial,157.0,540767.825,1.0,0.0,,1383.5100000000093,1.0,SS-DS,4.0,
4782,89,452.40499999999884_3732,20.0,Female,ts-trial-digit-span,ts-trial,159.0,546154.565,0.0,2.0,,2848.0250000000233,0.0,none,4.0,
4783,90,452.40499999999884_3732,20.0,Female,ts-trial-digit-span,ts-trial,161.0,550947.425,2.0,1.0,,2245.875,0.0,none,4.0,
4784,91,452.40499999999884_3732,20.0,Female,ts-trial-digit-span,ts-trial,163.0,556501.47,2.0,2.0,1.0,1192.1949999999488,0.0,none,4.0,
4785,92,452.40499999999884_3732,20.0,Female,ts-trial-digit-span,ts-trial,165.0,561833.505,1.0,1.0,1.0,1753.1300000000047,0.0,none,4.0,
4786,93,452.40499999999884_3732,20.0,Female,ts-trial-digit-span,ts-trial,167.0,566924.24,0.0,0.0,1.0,933.9449999999488,0.0,none,4.0,
4374,94,4597.265000003972_15055,18.0,Female,ts-trial-digit-span,ts-trial,167.0,596776.83,0.0,1.0,,2065.234999999986,1.0,SS-DS,4.0,
4375,95,4597.265000003972_15055,18.0,Female,ts-trial-digit-span,ts-trial,169.0,602352.265,1.0,1.0,1.0,2063.0999999999767,0.0,none,4.0,
4376,96,4597.265000003972_15055,18.0,Female,ts-trial-digit-span,ts-trial,171.0,607541.445,0.0,0.0,1.0,1908.0200000000186,0.0,none,4.0,
4377,97,4597.265000003972_15055,18.0,Female,ts-trial-digit-span,ts-trial,173.0,613031.24,2.0,2.0,1.0,2053.2050000000745,0.0,none,4.0,
4378,98,4597.265000003972_15055,18.0,Female,ts-trial-digit-span,ts-trial,175.0,618732.775,1.0,1.0,1.0,2071.8649999999907,0.0,none,4.0,
4379,99,4597.265000003972_15055,18.0,Female,ts-trial-digit-span,ts-trial,177.0,624259.765,0.0,0.0,1.0,2080.045000000042,0.0,none,4.0,
4380,100,4597.265000003972_15055,18.0,Female,ts-trial-digit-span,ts-trial,179.0,629361.845,2.0,0.0,,1372.734999999986,0.0,none,4.0,
4381,101,4597.265000003972_15055,18.0,Female,ts-trial-digit-span,ts-trial,181.0,634285.53,1.0,0.0,,1912.9949999999953,0.0,none,4.0,
1042,106,462.85000001080334_70250,21.0,Female,ts-trial-digit-span,ts-trial,189.0,652289.265,1.0,1.0,1.0,2544.670000000042,1.0,SS-DS,4.0,
1044,107,462.85000001080334_70250,21.0,Female,ts-trial-digit-span,ts-trial,191.0,658014.925,2.0,2.0,1.0,2516.6999999999534,0.0,none,4.0,
1045,108,462.85000001080334_70250,21.0,Female,ts-trial-digit-span,ts-trial,193.0,663179.66,2.0,2.0,1.0,2304.8450000000885,0.0,none,4.0,
1047,109,462.85000001080334_70250,21.0,Female,ts-trial-digit-span,ts-trial,195.0,668441.005,2.0,2.0,1.0,1536.765000000014,0.0,none,4.0,
2931,86,550.7099999999809_41239,18.0,female,ts-trial-digit-span,ts-trial,153.0,578008.945,2.0,2.0,1.0,2319.04999999993,1.0,SS-DS,4.0,
2932,87,550.7099999999809_41239,18.0,female,ts-trial-digit-span,ts-trial,155.0,583177.355,0.0,2.0,,2241.3499999999767,0.0,none,4.0,
2933,88,550.7099999999809_41239,18.0,female,ts-trial-digit-span,ts-trial,157.0,588706.725,0.0,0.0,1.0,2098.5,0.0,none,4.0,
2934,89,550.7099999999809_41239,18.0,female,ts-trial-digit-span,ts-trial,159.0,593680.055,0.0,0.0,1.0,2536.6199999999953,0.0,none,4.0,
2935,90,550.7099999999809_41239,18.0,female,ts-trial-digit-span,ts-trial,161.0,598701.1,0.0,0.0,1.0,2125.5100000000093,0.0,none,4.0,
2936,91,550.7099999999809_41239,18.0,female,ts-trial-digit-span,ts-trial,163.0,603723.365,0.0,0.0,1.0,1448.9749999999767,0.0,none,4.0,
2937,92,550.7099999999809_41239,18.0,female,ts-trial-digit-span,ts-trial,165.0,609320.35,0.0,1.0,,2807.9499999999534,0.0,none,4.0,
2938,93,550.7099999999809_41239,18.0,female,ts-trial-digit-span,ts-trial,167.0,614720.025,1.0,1.0,1.0,2214.6650000000373,0.0,none,4.0,
3163,106,569.4950000033714_22620,19.0,Female,ts-trial-digit-span,ts-trial,189.0,655136.665,1.0,1.0,1.0,2725.7600000000093,1.0,SS-DS,4.0,
3164,107,569.4950000033714_22620,19.0,Female,ts-trial-digit-span,ts-trial,191.0,660204.01,1.0,0.0,,2306.444999999949,0.0,none,4.0,
3165,108,569.4950000033714_22620,19.0,Female,ts-trial-digit-span,ts-trial,193.0,665771.85,0.0,0.0,1.0,2529.5800000000745,0.0,none,4.0,
2091,93,611.2100000027567_97917,19.0,male,ts-trial-digit-span,ts-trial,165.0,565630.325,0.0,0.0,1.0,1060.6949999999488,1.0,SR-DS,4.0,
2092,94,611.2100000027567_97917,19.0,male,ts-trial-digit-span,ts-trial,167.0,570946.73,0.0,0.0,1.0,1489.6699999999255,0.0,none,4.0,
2093,95,611.2100000027567_97917,19.0,male,ts-trial-digit-span,ts-trial,169.0,576286.105,0.0,0.0,1.0,1778.219999999972,0.0,none,4.0,
2094,96,611.2100000027567_97917,19.0,male,ts-trial-digit-span,ts-trial,171.0,581873.875,2.0,2.0,1.0,2571.6199999999953,0.0,none,4.0,
2095,97,611.2100000027567_97917,19.0,male,ts-trial-digit-span,ts-trial,173.0,587032.265,,0.0,,,0.0,none,4.0,
2096,98,611.2100000027567_97917,19.0,male,ts-trial-digit-span,ts-trial,175.0,592369.7,2.0,2.0,1.0,1129.8950000000186,0.0,none,4.0,
2097,99,611.2100000027567_97917,19.0,male,ts-trial-digit-span,ts-trial,177.0,598007.7,0.0,0.0,1.0,1714.6049999999814,0.0,none,4.0,
4595,107,755.2750000031665_40766,19.0,Female,ts-trial-digit-span,ts-trial,186.0,654298.51,0.0,2.0,,2099.305000000051,1.0,SR-DS,4.0,
4596,108,755.2750000031665_40766,19.0,Female,ts-trial-digit-span,ts-trial,188.0,659148.72,2.0,2.0,1.0,1726.1500000000233,0.0,none,4.0,
4597,109,755.2750000031665_40766,19.0,Female,ts-trial-digit-span,ts-trial,190.0,664365.975,2.0,0.0,,2156.170000000042,0.0,none,4.0,
4598,110,755.2750000031665_40766,19.0,Female,ts-trial-digit-span,ts-trial,192.0,669929.155,2.0,1.0,,2759.1300000000047,0.0,none,4.0,
4599,111,755.2750000031665_40766,19.0,Female,ts-trial-digit-span,ts-trial,194.0,674721.39,0.0,2.0,,2494.5350000000326,0.0,none,4.0,
4600,112,755.2750000031665_40766,19.0,Female,ts-trial-digit-span,ts-trial,196.0,680303.935,2.0,2.0,1.0,1904.2299999999814,0.0,none,4.0,
4601,113,755.2750000031665_40766,19.0,Female,ts-trial-digit-span,ts-trial,198.0,685493.32,0.0,0.0,1.0,1694.25,0.0,none,4.0,
310,66,831.5449999936391_42874,21.0,female,ts-trial-digit-span,ts-trial,117.0,428756.22,0.0,0.0,1.0,1834.420000000042,1.0,SS-DS,4.0,
312,67,831.5449999936391_42874,21.0,female,ts-trial-digit-span,ts-trial,119.0,433541.245,2.0,2.0,1.0,1849.984999999986,0.0,none,4.0,
314,68,831.5449999936391_42874,21.0,female,ts-trial-digit-span,ts-trial,121.0,438765.15,2.0,2.0,1.0,3002.1749999999884,0.0,none,4.0,
315,69,831.5449999936391_42874,21.0,female,ts-trial-digit-span,ts-trial,123.0,443958.33,2.0,2.0,1.0,2521.429999999993,0.0,none,4.0,
317,70,831.5449999936391_42874,21.0,female,ts-trial-digit-span,ts-trial,125.0,448783.215,1.0,1.0,1.0,2146.134999999951,0.0,none,4.0,
319,71,831.5449999936391_42874,21.0,female,ts-trial-digit-span,ts-trial,127.0,453954.685,0.0,0.0,1.0,2233.8300000000163,0.0,none,4.0,
1717,68,870_66478,19.0,Female,ts-trial-digit-span,ts-trial,121.0,411502.0,0.0,0.0,1.0,1747.0,1.0,SS-DS,4.0,
1718,69,870_66478,19.0,Female,ts-trial-digit-span,ts-trial,123.0,416711.0,1.0,1.0,1.0,1972.0,0.0,none,4.0,
1719,70,870_66478,19.0,Female,ts-trial-digit-span,ts-trial,125.0,422440.0,,0.0,,,0.0,none,4.0,
1720,71,870_66478,19.0,Female,ts-trial-digit-span,ts-trial,127.0,427575.0,1.0,1.0,1.0,1738.0,0.0,none,4.0,
1721,72,870_66478,19.0,Female,ts-trial-digit-span,ts-trial,129.0,432816.0,0.0,0.0,1.0,1221.0,0.0,none,4.0,
1722,73,870_66478,19.0,Female,ts-trial-digit-span,ts-trial,131.0,438212.0,2.0,2.0,1.0,2408.0,0.0,none,4.0,
1723,74,870_66478,19.0,Female,ts-trial-digit-span,ts-trial,133.0,443367.0,2.0,2.0,1.0,1051.0,0.0,none,4.0,
1523,70,961_63147,19.0,Female,ts-trial-digit-span,ts-trial,125.0,474626.0,1.0,1.0,1.0,2767.0,1.0,SS-DS,4.0,
1524,71,961_63147,19.0,Female,ts-trial-digit-span,ts-trial,127.0,479708.0,1.0,2.0,,1782.0,0.0,none,4.0,
1525,72,961_63147,19.0,Female,ts-trial-digit-span,ts-trial,129.0,484499.0,2.0,1.0,,2512.0,0.0,none,4.0,
1526,73,961_63147,19.0,Female,ts-trial-digit-span,ts-trial,131.0,489491.0,1.0,2.0,,2104.0,0.0,none,4.0,
1527,74,961_63147,19.0,Female,ts-trial-digit-span,ts-trial,133.0,494819.0,0.0,1.0,,2270.0,0.0,none,4.0,
1528,75,961_63147,19.0,Female,ts-trial-digit-span,ts-trial,135.0,500483.0,2.0,0.0,,2673.0,0.0,none,4.0,1166.460000000021
1332,86,1152.5099999271333_59120,20.0,Female,ts-trial-digit-span,ts-trial,153.0,497413.04,0.0,0.0,1.0,1014.2300000000396,1.0,SS-DS,5.0,
1333,87,1152.5099999271333_59120,20.0,Female,ts-trial-digit-span,ts-trial,155.0,502442.06,1.0,1.0,1.0,1006.0800000000163,0.0,none,5.0,
1334,88,1152.5099999271333_59120,20.0,Female,ts-trial-digit-span,ts-trial,157.0,507254.17,1.0,2.0,,775.359999999986,0.0,none,5.0,
1335,89,1152.5099999271333_59120,20.0,Female,ts-trial-digit-span,ts-trial,159.0,512042.945,0.0,0.0,1.0,968.1399999999558,0.0,none,5.0,
1336,90,1152.5099999271333_59120,20.0,Female,ts-trial-digit-span,ts-trial,161.0,517760.585,0.0,0.0,1.0,905.5250000000233,0.0,none,5.0,
1337,91,1152.5099999271333_59120,20.0,Female,ts-trial-digit-span,ts-trial,163.0,522889.64,1.0,1.0,1.0,1556.5599999999395,0.0,none,5.0,
1338,92,1152.5099999271333_59120,20.0,Female,ts-trial-digit-span,ts-trial,165.0,527787.655,2.0,2.0,1.0,950.890000000014,0.0,none,5.0,
1339,93,1152.5099999271333_59120,20.0,Female,ts-trial-digit-span,ts-trial,167.0,532771.49,0.0,0.0,1.0,1142.359999999986,0.0,none,5.0,
1340,94,1152.5099999271333_59120,20.0,Female,ts-trial-digit-span,ts-trial,169.0,537596.04,1.0,1.0,1.0,1291.5050000000047,0.0,none,5.0,
3783,99,1168.1700000001456_40690,20.0,Male,ts-trial-digit-span,ts-trial,177.0,626489.32,0.0,0.0,1.0,2102.375,1.0,SS-DS,5.0,
3784,100,1168.1700000001456_40690,20.0,Male,ts-trial-digit-span,ts-trial,179.0,631574.58,2.0,2.0,1.0,1773.969999999972,0.0,none,5.0,
3785,101,1168.1700000001456_40690,20.0,Male,ts-trial-digit-span,ts-trial,181.0,636607.13,0.0,0.0,1.0,1745.2750000000233,0.0,none,5.0,
3786,102,1168.1700000001456_40690,20.0,Male,ts-trial-digit-span,ts-trial,183.0,641553.945,1.0,1.0,1.0,1404.5400000000373,0.0,none,5.0,
3787,103,1168.1700000001456_40690,20.0,Male,ts-trial-digit-span,ts-trial,185.0,646743.04,0.0,2.0,,1124.4650000000838,0.0,none,5.0,
3788,104,1168.1700000001456_40690,20.0,Male,ts-trial-digit-span,ts-trial,187.0,652484.72,0.0,0.0,1.0,2866.6650000000373,0.0,none,5.0,
3789,105,1168.1700000001456_40690,20.0,Male,ts-trial-digit-span,ts-trial,189.0,657876.21,2.0,2.0,1.0,1293.1750000000466,0.0,none,5.0,
2738,107,1273.4650000929832_33389,22.0,female,ts-trial-digit-span,ts-trial,191.0,875792.335,2.0,2.0,1.0,1570.6199999999953,1.0,SR-DS,5.0,
2739,108,1273.4650000929832_33389,22.0,female,ts-trial-digit-span,ts-trial,193.0,881269.195,0.0,0.0,1.0,1502.4350000000559,0.0,none,5.0,
2740,109,1273.4650000929832_33389,22.0,female,ts-trial-digit-span,ts-trial,195.0,886389.915,0.0,0.0,1.0,1082.265000000014,0.0,none,5.0,
724,117,1718.75_45854,19.0,Female,ts-trial-digit-span,ts-trial,206.0,703472.06,1.0,1.0,1.0,1224.905000000028,1.0,SR-DS,5.0,
725,118,1718.75_45854,19.0,Female,ts-trial-digit-span,ts-trial,208.0,708704.535,1.0,0.0,,1965.515000000014,0.0,none,5.0,
726,119,1718.75_45854,19.0,Female,ts-trial-digit-span,ts-trial,210.0,713999.705,0.0,0.0,1.0,2279.429999999935,0.0,none,5.0,
727,120,1718.75_45854,19.0,Female,ts-trial-digit-span,ts-trial,212.0,719371.965,2.0,2.0,1.0,1602.9850000001024,0.0,none,5.0,
728,121,1718.75_45854,19.0,Female,ts-trial-digit-span,ts-trial,214.0,724955.815,0.0,0.0,1.0,1432.6999999999534,0.0,none,5.0,
729,122,1718.75_45854,19.0,Female,ts-trial-digit-span,ts-trial,216.0,729954.64,0.0,1.0,,1419.109999999986,0.0,none,5.0,
4996,98,1830_2921,22.0,Male,ts-trial-digit-span,ts-trial,175.0,590792.0,1.0,1.0,1.0,1294.0,1.0,SR-DS,5.0,
4997,99,1830_2921,22.0,Male,ts-trial-digit-span,ts-trial,177.0,596205.0,0.0,1.0,,1605.0,0.0,none,5.0,
4998,100,1830_2921,22.0,Male,ts-trial-digit-span,ts-trial,179.0,601932.0,1.0,0.0,,1055.0,0.0,none,5.0,
4999,101,1830_2921,22.0,Male,ts-trial-digit-span,ts-trial,181.0,607138.0,2.0,0.0,,1193.0,0.0,none,5.0,
5000,102,1830_2921,22.0,Male,ts-trial-digit-span,ts-trial,183.0,612243.0,1.0,0.0,,2059.0,0.0,none,5.0,
5001,103,1830_2921,22.0,Male,ts-trial-digit-span,ts-trial,185.0,617476.0,2.0,1.0,,1527.0,0.0,none,5.0,
1024,109,1975.4950000206009_98708,24.0,Female,ts-trial-digit-span,ts-trial,195.0,744918.505,0.0,0.0,1.0,2811.0999999999767,1.0,SS-DS,5.0,
1026,110,1975.4950000206009_98708,24.0,Female,ts-trial-digit-span,ts-trial,197.0,750435.955,1.0,1.0,1.0,2082.2700000000186,0.0,none,5.0,
1028,111,1975.4950000206009_98708,24.0,Female,ts-trial-digit-span,ts-trial,199.0,756155.085,0.0,0.0,1.0,1446.8250000000698,0.0,none,5.0,
1029,112,1975.4950000206009_98708,24.0,Female,ts-trial-digit-span,ts-trial,201.0,761009.62,2.0,2.0,1.0,1560.155000000028,0.0,none,5.0,
3581,107,217_86855,20.0,Female,ts-trial-digit-span,ts-trial,191.0,639055.0,2.0,2.0,1.0,1261.0,1.0,SS-DS,5.0,
3582,108,217_86855,20.0,Female,ts-trial-digit-span,ts-trial,193.0,644392.0,1.0,1.0,1.0,1837.0,0.0,none,5.0,
3583,109,217_86855,20.0,Female,ts-trial-digit-span,ts-trial,195.0,649510.0,0.0,1.0,,1818.0,0.0,none,5.0,
4000,104,232_72278,19.0,Female,ts-trial-digit-span,ts-trial,185.0,635452.0,1.0,2.0,,1654.0,1.0,SS-DS,5.0,
4001,105,232_72278,19.0,Female,ts-trial-digit-span,ts-trial,187.0,640611.0,2.0,2.0,1.0,1329.0,0.0,none,5.0,
4002,106,232_72278,19.0,Female,ts-trial-digit-span,ts-trial,189.0,646311.0,0.0,1.0,,2192.0,0.0,none,5.0,
4003,107,232_72278,19.0,Female,ts-trial-digit-span,ts-trial,191.0,651471.0,1.0,1.0,1.0,1450.0,0.0,none,5.0,
1919,130,236.19000000007873_6858,20.0,Female ,ts-trial-digit-span,ts-trial,228.0,786831.74,,1.0,,,1.0,SS-DS,5.0,
1920,131,236.19000000007873_6858,20.0,Female ,ts-trial-digit-span,ts-trial,230.0,792353.18,,2.0,,,0.0,none,5.0,
1921,132,236.19000000007873_6858,20.0,Female ,ts-trial-digit-span,ts-trial,232.0,797856.4,1.0,2.0,,2324.9899999999907,0.0,none,5.0,
1922,133,236.19000000007873_6858,20.0,Female ,ts-trial-digit-span,ts-trial,234.0,803583.745,1.0,1.0,1.0,2379.274999999907,0.0,none,5.0,
1923,134,236.19000000007873_6858,20.0,Female ,ts-trial-digit-span,ts-trial,236.0,809234.315,1.0,2.0,,2265.1350000000093,0.0,none,5.0,
1924,135,236.19000000007873_6858,20.0,Female ,ts-trial-digit-span,ts-trial,238.0,814933.855,0.0,0.0,1.0,2417.3349999999627,0.0,none,5.0,
1925,136,236.19000000007873_6858,20.0,Female ,ts-trial-digit-span,ts-trial,240.0,820118.215,1.0,2.0,,2502.659999999916,0.0,none,5.0,
1926,137,236.19000000007873_6858,20.0,Female ,ts-trial-digit-span,ts-trial,242.0,825302.675,1.0,2.0,,2460.444999999949,0.0,none,5.0,
433,105,251.67000001238193_90175,20.0,Female,ts-trial-digit-span,ts-trial,184.0,663877.57,0.0,0.0,1.0,2092.6600000000326,1.0,none,5.0,
434,106,251.67000001238193_90175,20.0,Female,ts-trial-digit-span,ts-trial,186.0,668929.27,0.0,0.0,1.0,1681.280000000028,0.0,none,5.0,
436,107,251.67000001238193_90175,20.0,Female,ts-trial-digit-span,ts-trial,188.0,673895.36,0.0,1.0,,2428.0100000000093,0.0,none,5.0,
2524,107,268.8400000006368_67932,20.0,female,ts-trial-digit-span,ts-trial,191.0,615233.14,0.0,2.0,,1367.1450000000186,1.0,SR-DS,5.0,
2525,108,268.8400000006368_67932,20.0,female,ts-trial-digit-span,ts-trial,193.0,620700.415,0.0,0.0,1.0,1250.0649999999441,0.0,none,5.0,
2526,109,268.8400000006368_67932,20.0,female,ts-trial-digit-span,ts-trial,195.0,625808.835,1.0,0.0,,1258.5200000000186,0.0,none,5.0,
94,95,283.00000000000006_59779,20.0,Female,ts-trial-digit-span,ts-trial,169.0,593255.0,2.0,2.0,1.0,1522.0,1.0,SS-DS,5.0,
95,96,283.00000000000006_59779,20.0,Female,ts-trial-digit-span,ts-trial,171.0,598300.0,1.0,2.0,,1858.0,0.0,none,5.0,
96,97,283.00000000000006_59779,20.0,Female,ts-trial-digit-span,ts-trial,173.0,603934.0,2.0,2.0,1.0,1377.0,0.0,none,5.0,
97,98,283.00000000000006_59779,20.0,Female,ts-trial-digit-span,ts-trial,175.0,608991.0,2.0,2.0,1.0,1623.0,0.0,none,5.0,
98,99,283.00000000000006_59779,20.0,Female,ts-trial-digit-span,ts-trial,177.0,614274.0,1.0,1.0,1.0,1595.0,0.0,none,5.0,
99,100,283.00000000000006_59779,20.0,Female,ts-trial-digit-span,ts-trial,179.0,619456.0,2.0,2.0,1.0,1967.0,0.0,none,5.0,
100,101,283.00000000000006_59779,20.0,Female,ts-trial-digit-span,ts-trial,181.0,625121.0,1.0,1.0,1.0,1766.0,0.0,none,5.0,
2314,107,293.7149999997928_80595,20.0,Female,ts-trial-digit-span,ts-trial,191.0,653763.535,1.0,2.0,,1877.3450000000885,1.0,SS-DS,5.0,
2315,108,293.7149999997928_80595,20.0,Female,ts-trial-digit-span,ts-trial,193.0,659106.955,1.0,1.0,1.0,1021.9499999999534,0.0,none,5.0,
2316,109,293.7149999997928_80595,20.0,Female,ts-trial-digit-span,ts-trial,195.0,664230.24,1.0,1.0,1.0,1164.1750000000466,0.0,none,5.0,
4206,134,316_38703,21.0,Female,ts-trial-digit-span,ts-trial,238.0,800936.0,2.0,0.0,,2156.0,1.0,SS-DS,5.0,
4207,135,316_38703,21.0,Female,ts-trial-digit-span,ts-trial,240.0,806477.0,,1.0,,,0.0,none,5.0,
4208,136,316_38703,21.0,Female,ts-trial-digit-span,ts-trial,242.0,811471.0,2.0,2.0,1.0,1225.0,0.0,none,5.0,
4209,137,316_38703,21.0,Female,ts-trial-digit-span,ts-trial,244.0,816882.0,0.0,2.0,,2732.0,0.0,none,5.0,
4210,138,316_38703,21.0,Female,ts-trial-digit-span,ts-trial,246.0,822374.0,2.0,2.0,1.0,1570.0,0.0,none,5.0,
4211,139,316_38703,21.0,Female,ts-trial-digit-span,ts-trial,248.0,827805.0,1.0,1.0,1.0,2536.0,0.0,none,5.0,
3389,127,394_3084,20.0,female,ts-trial-digit-span,ts-trial,224.0,736918.0,1.0,0.0,,2563.0,1.0,SS-DS,5.0,
3390,128,394_3084,20.0,female,ts-trial-digit-span,ts-trial,226.0,741803.0,0.0,0.0,1.0,1859.0,0.0,none,5.0,
3391,129,394_3084,20.0,female,ts-trial-digit-span,ts-trial,228.0,746781.0,2.0,2.0,1.0,2591.0,0.0,none,5.0,
3392,130,394_3084,20.0,female,ts-trial-digit-span,ts-trial,230.0,751985.0,2.0,2.0,1.0,2080.0,0.0,none,5.0,
3393,131,394_3084,20.0,female,ts-trial-digit-span,ts-trial,232.0,757241.0,1.0,1.0,1.0,1888.0,0.0,none,5.0,
3394,132,394_3084,20.0,female,ts-trial-digit-span,ts-trial,234.0,762182.0,0.0,0.0,1.0,1450.0,0.0,none,5.0,
3395,133,394_3084,20.0,female,ts-trial-digit-span,ts-trial,236.0,767111.0,2.0,2.0,1.0,1245.0,0.0,none,5.0,
3396,134,394_3084,20.0,female,ts-trial-digit-span,ts-trial,238.0,772558.0,2.0,2.0,1.0,2602.0,0.0,none,5.0,
4796,103,452.40499999999884_3732,20.0,Female,ts-trial-digit-span,ts-trial,183.0,624287.255,2.0,2.0,1.0,1268.7300000000978,1.0,SR-DS,5.0,
4797,104,452.40499999999884_3732,20.0,Female,ts-trial-digit-span,ts-trial,185.0,630007.35,1.0,1.0,1.0,1336.7000000000698,0.0,none,5.0,
4798,105,452.40499999999884_3732,20.0,Female,ts-trial-digit-span,ts-trial,187.0,635511.145,2.0,2.0,1.0,2354.015000000014,0.0,none,5.0,
4799,106,452.40499999999884_3732,20.0,Female,ts-trial-digit-span,ts-trial,189.0,640763.75,0.0,0.0,1.0,1412.4949999999953,0.0,none,5.0,
4418,138,4597.265000003972_15055,18.0,Female,ts-trial-digit-span,ts-trial,242.0,856763.125,1.0,1.0,1.0,2095.3399999999674,1.0,SS-DS,5.0,
4419,139,4597.265000003972_15055,18.0,Female,ts-trial-digit-span,ts-trial,244.0,861968.705,,2.0,,,0.0,none,5.0,
4420,140,4597.265000003972_15055,18.0,Female,ts-trial-digit-span,ts-trial,246.0,867262.555,2.0,2.0,1.0,2960.1300000000047,0.0,none,5.0,
4421,141,4597.265000003972_15055,18.0,Female,ts-trial-digit-span,ts-trial,248.0,872686.26,2.0,2.0,1.0,2127.5849999999627,0.0,none,5.0,
4422,142,4597.265000003972_15055,18.0,Female,ts-trial-digit-span,ts-trial,250.0,877866.405,2.0,2.0,1.0,2705.70000000007,0.0,none,5.0,
4423,143,4597.265000003972_15055,18.0,Female,ts-trial-digit-span,ts-trial,252.0,883223.45,1.0,0.0,,2168.375,0.0,none,5.0,
4424,144,4597.265000003972_15055,18.0,Female,ts-trial-digit-span,ts-trial,254.0,888459.685,0.0,0.0,1.0,2860.519999999902,0.0,none,5.0,
1051,112,462.85000001080334_70250,21.0,Female,ts-trial-digit-span,ts-trial,198.0,677126.24,2.0,2.0,1.0,1971.8049999999348,1.0,none,5.0,
1053,113,462.85000001080334_70250,21.0,Female,ts-trial-digit-span,ts-trial,200.0,682570.96,0.0,0.0,1.0,2304.219999999972,0.0,none,5.0,
1055,114,462.85000001080334_70250,21.0,Female,ts-trial-digit-span,ts-trial,202.0,688100.31,2.0,2.0,1.0,2001.9800000000978,0.0,none,5.0,
