,index_raw,auto_participant_id,participant_age,participant_gender,type,trial_type,trial_index,time_start,participant_ans,target_ans,accuracy,response_time,changed_shifted,switch_type,occurence
3946,2,1013.1699999910779_57485,19,Female,ts-trial-digit-span,ts-trial,5,63346.985,,1,,,1,NONE-DS,1
3947,3,1013.1699999910779_57485,19,Female,ts-trial-digit-span,ts-trial,7,68356.895,,0,,,0,NONE-DS,1
3948,4,1013.1699999910779_57485,19,Female,ts-trial-digit-span,ts-trial,9,73194.335,1,1,1,1434.455,0,NONE-DS,1
3949,5,1013.1699999910779_57485,19,Female,ts-trial-digit-span,ts-trial,11,78817.56,2,1,,1577.355,0,NONE-DS,1
3950,6,1013.1699999910779_57485,19,Female,ts-trial-digit-span,ts-trial,13,83975.61,,2,,,0,NONE-DS,1
3951,7,1013.1699999910779_57485,19,Female,ts-trial-digit-span,ts-trial,15,89213.88,2,2,1,2602.945,0,NONE-DS,1
3952,8,1013.1699999910779_57485,19,Female,ts-trial-digit-span,ts-trial,17,94223.735,2,2,1,1704.4,0,NONE-DS,1
3953,9,1013.1699999910779_57485,19,Female,ts-trial-digit-span,ts-trial,19,99905.46,,0,,,0,NONE-DS,1
3954,10,1013.1699999910779_57485,19,Female,ts-trial-digit-span,ts-trial,21,105496.805,2,2,1,1519.88,0,NONE-DS,1
3964,20,1013.1699999910779_57485,19,Female,ts-trial-digit-span,ts-trial,37,163605.755,,2,,,1,SS-DS,2
3965,21,1013.1699999910779_57485,19,Female,ts-trial-digit-span,ts-trial,39,169113.5,1,1,1,2023.08,0,SS-DS,2
3966,22,1013.1699999910779_57485,19,Female,ts-trial-digit-span,ts-trial,41,174174.04,2,2,1,1350.365,0,SS-DS,2
3967,23,1013.1699999910779_57485,19,Female,ts-trial-digit-span,ts-trial,43,179127.35,1,1,1,2084.305,0,SS-DS,2
3968,24,1013.1699999910779_57485,19,Female,ts-trial-digit-span,ts-trial,45,184866.72,2,1,,2886.13,0,SS-DS,2
3969,25,1013.1699999910779_57485,19,Female,ts-trial-digit-span,ts-trial,47,190167.475,,2,,,0,SS-DS,2
3970,26,1013.1699999910779_57485,19,Female,ts-trial-digit-span,ts-trial,49,195532.78,,2,,,0,SS-DS,2
3981,37,1013.1699999910779_57485,19,Female,ts-trial-digit-span,ts-trial,67,258012.28,2,1,,1764.03,1,SR-DS,3
3982,38,1013.1699999910779_57485,19,Female,ts-trial-digit-span,ts-trial,69,262916.785,1,1,1,2059.85,0,SR-DS,3
3983,39,1013.1699999910779_57485,19,Female,ts-trial-digit-span,ts-trial,71,268303.655,0,0,1,2628.095,0,SR-DS,3
3984,40,1013.1699999910779_57485,19,Female,ts-trial-digit-span,ts-trial,73,273539.64,,1,,,0,SR-DS,3
3985,41,1013.1699999910779_57485,19,Female,ts-trial-digit-span,ts-trial,75,278801.545,0,0,1,2286.045,0,SR-DS,3
3986,42,1013.1699999910779_57485,19,Female,ts-trial-digit-span,ts-trial,77,284000.61,1,1,1,2357.1,0,SR-DS,3
3987,43,1013.1699999910779_57485,19,Female,ts-trial-digit-span,ts-trial,79,288835.645,1,0,,2459.62,0,SR-DS,3
3988,44,1013.1699999910779_57485,19,Female,ts-trial-digit-span,ts-trial,81,294229.065,1,1,1,2904.365,0,SR-DS,3
4026,82,1013.1699999910779_57485,19,Female,ts-trial-digit-span,ts-trial,147,522480.905,1,1,1,2009.095,1,SS-DS,4
4027,83,1013.1699999910779_57485,19,Female,ts-trial-digit-span,ts-trial,149,527484.805,1,0,,2736.58,0,SS-DS,4
4028,84,1013.1699999910779_57485,19,Female,ts-trial-digit-span,ts-trial,151,532281.665,1,2,,2172.81,0,SS-DS,4
4029,85,1013.1699999910779_57485,19,Female,ts-trial-digit-span,ts-trial,153,537928.53,,1,,,0,SS-DS,4
4030,86,1013.1699999910779_57485,19,Female,ts-trial-digit-span,ts-trial,155,542891.245,1,0,,2500.265,0,SS-DS,4
4031,87,1013.1699999910779_57485,19,Female,ts-trial-digit-span,ts-trial,157,548571.115,2,2,1,2854.105,0,SS-DS,4
4032,88,1013.1699999910779_57485,19,Female,ts-trial-digit-span,ts-trial,159,553926.21,,0,,,0,SS-DS,4
4033,89,1013.1699999910779_57485,19,Female,ts-trial-digit-span,ts-trial,161,559176.59,,1,,,0,SS-DS,4
4043,99,1013.1699999910779_57485,19,Female,ts-trial-digit-span,ts-trial,177,617643.295,,0,,,1,SS-DS,5
4044,100,1013.1699999910779_57485,19,Female,ts-trial-digit-span,ts-trial,179,622736.565,,2,,,0,SS-DS,5
4045,101,1013.1699999910779_57485,19,Female,ts-trial-digit-span,ts-trial,181,627783.665,,0,,,0,SS-DS,5
4046,102,1013.1699999910779_57485,19,Female,ts-trial-digit-span,ts-trial,183,632737.915,1,1,1,2655.99,0,SS-DS,5
4047,103,1013.1699999910779_57485,19,Female,ts-trial-digit-span,ts-trial,185,637938.695,,2,,,0,SS-DS,5
4048,104,1013.1699999910779_57485,19,Female,ts-trial-digit-span,ts-trial,187,643693.17,0,0,1,1741.96,0,SS-DS,5
4049,105,1013.1699999910779_57485,19,Female,ts-trial-digit-span,ts-trial,189,649093.52,2,2,1,1746.82,0,SS-DS,5
4063,119,1013.1699999910779_57485,19,Female,ts-trial-digit-span,ts-trial,210,718748.34,,0,,,1,SR-DS,6
4064,120,1013.1699999910779_57485,19,Female,ts-trial-digit-span,ts-trial,212,723899.225,2,2,1,1890.51,0,SR-DS,6
4065,121,1013.1699999910779_57485,19,Female,ts-trial-digit-span,ts-trial,214,728933.83,2,2,1,2749.085,0,SR-DS,6
4066,122,1013.1699999910779_57485,19,Female,ts-trial-digit-span,ts-trial,216,733950.59,1,1,1,2717.78,0,SR-DS,6
4067,123,1013.1699999910779_57485,19,Female,ts-trial-digit-span,ts-trial,218,739256.295,1,1,1,2580.85,0,SR-DS,6
4068,124,1013.1699999910779_57485,19,Female,ts-trial-digit-span,ts-trial,220,744551.1,1,0,,2686.97,0,SR-DS,6
4069,125,1013.1699999910779_57485,19,Female,ts-trial-digit-span,ts-trial,222,750000.185,,1,,,0,SR-DS,6
4106,162,1013.1699999910779_57485,19,Female,ts-trial-digit-span,ts-trial,286,971288.345,,2,,,1,SR-DS,7
4107,163,1013.1699999910779_57485,19,Female,ts-trial-digit-span,ts-trial,288,976206.695,,0,,,0,SR-DS,7
4108,164,1013.1699999910779_57485,19,Female,ts-trial-digit-span,ts-trial,290,981150.19,0,1,,2513.03,0,SR-DS,7
4109,165,1013.1699999910779_57485,19,Female,ts-trial-digit-span,ts-trial,292,986554.155,1,1,1,1639.575,0,SR-DS,7
4110,166,1013.1699999910779_57485,19,Female,ts-trial-digit-span,ts-trial,294,991667.995,,0,,,0,SR-DS,7
4111,167,1013.1699999910779_57485,19,Female,ts-trial-digit-span,ts-trial,296,996932.8,,1,,,0,SR-DS,7
4112,168,1013.1699999910779_57485,19,Female,ts-trial-digit-span,ts-trial,298,1002089.06,1,0,,2078.855,0,SR-DS,7
4138,194,1013.1699999910779_57485,19,Female,ts-trial-digit-span,ts-trial,342,1155956.815,0,0,1,1571.01,1,SS-DS,8
4139,195,1013.1699999910779_57485,19,Female,ts-trial-digit-span,ts-trial,344,1161558.37,1,1,1,2876.025,0,SS-DS,8
4140,196,1013.1699999910779_57485,19,Female,ts-trial-digit-span,ts-trial,346,1166588.505,0,0,1,2673.775,0,SS-DS,8
4141,197,1013.1699999910779_57485,19,Female,ts-trial-digit-span,ts-trial,348,1172106.295,2,2,1,1863.28,0,SS-DS,8
4142,198,1013.1699999910779_57485,19,Female,ts-trial-digit-span,ts-trial,350,1177817.595,,0,,,0,SS-DS,8
4143,199,1013.1699999910779_57485,19,Female,ts-trial-digit-span,ts-trial,352,1183029.37,,1,,,0,SS-DS,8
4144,200,1013.1699999910779_57485,19,Female,ts-trial-digit-span,ts-trial,354,1187982.49,2,2,1,2694.135,0,SS-DS,8
4154,210,1013.1699999910779_57485,19,Female,ts-trial-digit-span,ts-trial,370,1245254.455,1,2,,1073.94,1,SR-DS,9
4155,211,1013.1699999910779_57485,19,Female,ts-trial-digit-span,ts-trial,372,1250406.54,,0,,,0,SR-DS,9
4156,212,1013.1699999910779_57485,19,Female,ts-trial-digit-span,ts-trial,374,1255260.305,0,0,1,2536.745,0,SR-DS,9
3972,28,1013.1699999910779_57485,19,Female,ts-trial-spatial-rotation,ts-trial,51,204197.96,0,0,1,2092.275,1,DS-SR,1
3973,29,1013.1699999910779_57485,19,Female,ts-trial-spatial-rotation,ts-trial,53,211390.965,,2,,,0,DS-SR,1
3974,30,1013.1699999910779_57485,19,Female,ts-trial-spatial-rotation,ts-trial,55,217774.27,1,1,1,1933.59,0,DS-SR,1
3975,31,1013.1699999910779_57485,19,Female,ts-trial-spatial-rotation,ts-trial,57,224162.81,0,2,,2283.225,0,DS-SR,1
3976,32,1013.1699999910779_57485,19,Female,ts-trial-spatial-rotation,ts-trial,59,231342.69,1,1,1,1474.705,0,DS-SR,1
3977,33,1013.1699999910779_57485,19,Female,ts-trial-spatial-rotation,ts-trial,61,237854.765,0,1,,2838.19,0,DS-SR,1
3978,34,1013.1699999910779_57485,19,Female,ts-trial-spatial-rotation,ts-trial,63,244521.355,1,1,1,2382.085,0,DS-SR,1
3979,35,1013.1699999910779_57485,19,Female,ts-trial-spatial-rotation,ts-trial,65,251346.85,,2,,,0,DS-SR,1
3990,46,1013.1699999910779_57485,19,Female,ts-trial-spatial-rotation,ts-trial,83,302898.19,,0,,,1,DS-SR,2
3991,47,1013.1699999910779_57485,19,Female,ts-trial-spatial-rotation,ts-trial,85,309332.155,2,2,1,1586.54,0,DS-SR,2
3992,48,1013.1699999910779_57485,19,Female,ts-trial-spatial-rotation,ts-trial,87,316105.46,1,0,,2083.95,0,DS-SR,2
3993,49,1013.1699999910779_57485,19,Female,ts-trial-spatial-rotation,ts-trial,89,323356.075,2,0,,2168.32,0,DS-SR,2
3994,50,1013.1699999910779_57485,19,Female,ts-trial-spatial-rotation,ts-trial,91,330463.25,2,2,1,2817.395,0,DS-SR,2
3995,51,1013.1699999910779_57485,19,Female,ts-trial-spatial-rotation,ts-trial,93,337425.92,0,0,1,1689.835,0,DS-SR,2
3996,52,1013.1699999910779_57485,19,Female,ts-trial-spatial-rotation,ts-trial,95,344459.98,1,1,1,1840.265,0,DS-SR,2
3997,53,1013.1699999910779_57485,19,Female,ts-trial-spatial-rotation,ts-trial,97,351378.125,2,2,1,2152.1,0,DS-SR,2
4009,65,1013.1699999910779_57485,19,Female,ts-trial-spatial-rotation,ts-trial,117,422399.325,2,2,1,1366.395,1,SS-SR,3
4010,66,1013.1699999910779_57485,19,Female,ts-trial-spatial-rotation,ts-trial,119,429542.55,0,0,1,1910.745,0,SS-SR,3
4011,67,1013.1699999910779_57485,19,Female,ts-trial-spatial-rotation,ts-trial,121,436171.79,2,2,1,2535.08,0,SS-SR,3
4012,68,1013.1699999910779_57485,19,Female,ts-trial-spatial-rotation,ts-trial,123,442832.625,2,0,,2813.62,0,SS-SR,3
4013,69,1013.1699999910779_57485,19,Female,ts-trial-spatial-rotation,ts-trial,125,449302.565,0,0,1,2594.865,0,SS-SR,3
4014,70,1013.1699999910779_57485,19,Female,ts-trial-spatial-rotation,ts-trial,127,456464.34,0,0,1,1673.005,0,SS-SR,3
4015,71,1013.1699999910779_57485,19,Female,ts-trial-spatial-rotation,ts-trial,129,463351.05,2,1,,2944.405,0,SS-SR,3
4051,107,1013.1699999910779_57485,19,Female,ts-trial-spatial-rotation,ts-trial,191,654260.3,2,2,1,2073.235,1,DS-SR,4
4052,108,1013.1699999910779_57485,19,Female,ts-trial-spatial-rotation,ts-trial,193,660772.255,0,0,1,1698.58,0,DS-SR,4
4053,109,1013.1699999910779_57485,19,Female,ts-trial-spatial-rotation,ts-trial,195,667577.425,,0,,,0,DS-SR,4
4055,111,1013.1699999910779_57485,19,Female,ts-trial-spatial-rotation,ts-trial,197,674282.25,1,1,1,2411.94,0,DS-SR,4
4057,113,1013.1699999910779_57485,19,Female,ts-trial-spatial-rotation,ts-trial,200,684452.45,2,2,1,2520.705,1,DS-SR,5
4058,114,1013.1699999910779_57485,19,Female,ts-trial-spatial-rotation,ts-trial,202,691589.4,1,1,1,2048.435,0,DS-SR,5
4059,115,1013.1699999910779_57485,19,Female,ts-trial-spatial-rotation,ts-trial,204,698770.07,,0,,,0,DS-SR,5
4060,116,1013.1699999910779_57485,19,Female,ts-trial-spatial-rotation,ts-trial,206,705264.73,0,2,,1914.59,0,DS-SR,5
4061,117,1013.1699999910779_57485,19,Female,ts-trial-spatial-rotation,ts-trial,208,712082.055,0,0,1,1935.145,0,DS-SR,5
4081,137,1013.1699999910779_57485,19,Female,ts-trial-spatial-rotation,ts-trial,242,815589.31,1,0,,927.99,1,SS-SR,6
4082,138,1013.1699999910779_57485,19,Female,ts-trial-spatial-rotation,ts-trial,244,822803.855,1,1,1,1775.095,0,SS-SR,6
4083,139,1013.1699999910779_57485,19,Female,ts-trial-spatial-rotation,ts-trial,246,829848.845,0,0,1,2370.92,0,SS-SR,6
4084,140,1013.1699999910779_57485,19,Female,ts-trial-spatial-rotation,ts-trial,250,843356.67,0,2,,2690.635,0,SS-SR,6
4085,141,1013.1699999910779_57485,19,Female,ts-trial-spatial-rotation,ts-trial,252,849690.61,1,1,1,987.395,0,SS-SR,6
4086,142,1013.1699999910779_57485,19,Female,ts-trial-spatial-rotation,ts-trial,254,856355.44,1,1,1,2281.63,0,SS-SR,6
4087,143,1013.1699999910779_57485,19,Female,ts-trial-spatial-rotation,ts-trial,256,863362.36,0,0,1,1529.735,0,SS-SR,6
4089,145,1013.1699999910779_57485,19,Female,ts-trial-spatial-rotation,ts-trial,248,837029.455,1,1,1,2869.155,1,SS-SR,7
4097,153,1013.1699999910779_57485,19,Female,ts-trial-spatial-rotation,ts-trial,270,914608.745,0,0,1,2216.75,1,SS-SR,8
4098,154,1013.1699999910779_57485,19,Female,ts-trial-spatial-rotation,ts-trial,272,921642.115,1,1,1,2560.88,0,SS-SR,8
4099,155,1013.1699999910779_57485,19,Female,ts-trial-spatial-rotation,ts-trial,274,928066.97,0,2,,1260.89,0,SS-SR,8
4100,156,1013.1699999910779_57485,19,Female,ts-trial-spatial-rotation,ts-trial,276,934338.92,2,1,,1742.845,0,SS-SR,8
4101,157,1013.1699999910779_57485,19,Female,ts-trial-spatial-rotation,ts-trial,278,940701.7,2,2,1,1783.72,0,SS-SR,8
4102,158,1013.1699999910779_57485,19,Female,ts-trial-spatial-rotation,ts-trial,280,947496.31,,2,,,0,SS-SR,8
4103,159,1013.1699999910779_57485,19,Female,ts-trial-spatial-rotation,ts-trial,282,953907.715,1,2,,2980.69,0,SS-SR,8
4104,160,1013.1699999910779_57485,19,Female,ts-trial-spatial-rotation,ts-trial,284,961123.91,2,2,1,1994.8,0,SS-SR,8
4122,178,1013.1699999910779_57485,19,Female,ts-trial-spatial-rotation,ts-trial,314,1058603.695,2,2,1,1408.665,1,SS-SR,9
4123,179,1013.1699999910779_57485,19,Female,ts-trial-spatial-rotation,ts-trial,316,1065295.23,1,1,1,1742.395,0,SS-SR,9
4124,180,1013.1699999910779_57485,19,Female,ts-trial-spatial-rotation,ts-trial,318,1072241.89,0,2,,2927.69,0,SS-SR,9
4125,181,1013.1699999910779_57485,19,Female,ts-trial-spatial-rotation,ts-trial,320,1078529.44,,0,,,0,SS-SR,9
4126,182,1013.1699999910779_57485,19,Female,ts-trial-spatial-rotation,ts-trial,322,1085166.255,,2,,,0,SS-SR,9
4127,183,1013.1699999910779_57485,19,Female,ts-trial-spatial-rotation,ts-trial,324,1091794.055,1,1,1,2235.67,0,SS-SR,9
4128,184,1013.1699999910779_57485,19,Female,ts-trial-spatial-rotation,ts-trial,326,1098429.185,0,0,1,2947.31,0,SS-SR,9
4129,185,1013.1699999910779_57485,19,Female,ts-trial-spatial-rotation,ts-trial,328,1104724.16,1,1,1,1858.005,0,SS-SR,9
4146,202,1013.1699999910779_57485,19,Female,ts-trial-spatial-rotation,ts-trial,356,1193150.35,0,0,1,2508.44,1,DS-SR,10
4147,203,1013.1699999910779_57485,19,Female,ts-trial-spatial-rotation,ts-trial,358,1200375.34,0,1,,1563.62,0,DS-SR,10
4148,204,1013.1699999910779_57485,19,Female,ts-trial-spatial-rotation,ts-trial,360,1207132.13,,1,,,0,DS-SR,10
4149,205,1013.1699999910779_57485,19,Female,ts-trial-spatial-rotation,ts-trial,362,1214228.535,1,1,1,2641.71,0,DS-SR,10
4150,206,1013.1699999910779_57485,19,Female,ts-trial-spatial-rotation,ts-trial,364,1221494.22,0,0,1,1431.935,0,DS-SR,10
4151,207,1013.1699999910779_57485,19,Female,ts-trial-spatial-rotation,ts-trial,366,1227966.905,1,0,,2912.05,0,DS-SR,10
4152,208,1013.1699999910779_57485,19,Female,ts-trial-spatial-rotation,ts-trial,368,1235090.025,1,1,1,1464.265,0,DS-SR,10
3956,12,1013.1699999910779_57485,19,Female,ts-trial-spatial-span,ts-trial,23,114163.025,,1,,,1,DS-SS,1
3957,13,1013.1699999910779_57485,19,Female,ts-trial-spatial-span,ts-trial,25,120567.095,1,0,,887.265,0,DS-SS,1
3958,14,1013.1699999910779_57485,19,Female,ts-trial-spatial-span,ts-trial,27,127149.195,2,2,1,1061.485,0,DS-SS,1
3959,15,1013.1699999910779_57485,19,Female,ts-trial-spatial-span,ts-trial,29,133717.97,,2,,,0,DS-SS,1
3960,16,1013.1699999910779_57485,19,Female,ts-trial-spatial-span,ts-trial,31,140368.405,2,2,1,2464.275,0,DS-SS,1
3961,17,1013.1699999910779_57485,19,Female,ts-trial-spatial-span,ts-trial,33,146999.545,1,1,1,2029.7,0,DS-SS,1
3962,18,1013.1699999910779_57485,19,Female,ts-trial-spatial-span,ts-trial,35,153440.995,1,1,1,1777.14,0,DS-SS,1
3999,55,1013.1699999910779_57485,19,Female,ts-trial-spatial-span,ts-trial,99,361549.69,0,0,1,2472.21,1,SR-SS,2
4000,56,1013.1699999910779_57485,19,Female,ts-trial-spatial-span,ts-trial,101,368020.965,,1,,,0,SR-SS,2
4001,57,1013.1699999910779_57485,19,Female,ts-trial-spatial-span,ts-trial,103,374749.965,2,1,,2893.755,0,SR-SS,2
4002,58,1013.1699999910779_57485,19,Female,ts-trial-spatial-span,ts-trial,105,382018.595,2,2,1,1297.56,0,SR-SS,2
4003,59,1013.1699999910779_57485,19,Female,ts-trial-spatial-span,ts-trial,107,388879.545,,0,,,0,SR-SS,2
4004,60,1013.1699999910779_57485,19,Female,ts-trial-spatial-span,ts-trial,109,395261.18,1,1,1,2402.135,0,SR-SS,2
4005,61,1013.1699999910779_57485,19,Female,ts-trial-spatial-span,ts-trial,111,402138.255,2,2,1,2431.315,0,SR-SS,2
4006,62,1013.1699999910779_57485,19,Female,ts-trial-spatial-span,ts-trial,113,408935.075,,0,,,0,SR-SS,2
4007,63,1013.1699999910779_57485,19,Female,ts-trial-spatial-span,ts-trial,115,415735.44,0,0,1,1991.28,0,SR-SS,2
4017,73,1013.1699999910779_57485,19,Female,ts-trial-spatial-span,ts-trial,131,470018.42,,2,,,1,SR-SS,3
4018,74,1013.1699999910779_57485,19,Female,ts-trial-spatial-span,ts-trial,133,476643.76,,0,,,0,SR-SS,3
4019,75,1013.1699999910779_57485,19,Female,ts-trial-spatial-span,ts-trial,135,483091.075,0,0,1,2302.045,0,SR-SS,3
4020,76,1013.1699999910779_57485,19,Female,ts-trial-spatial-span,ts-trial,137,489735.31,0,0,1,2446.75,0,SR-SS,3
4021,77,1013.1699999910779_57485,19,Female,ts-trial-spatial-span,ts-trial,139,496057.185,2,2,1,2569.36,0,SR-SS,3
4022,78,1013.1699999910779_57485,19,Female,ts-trial-spatial-span,ts-trial,141,502375.875,,2,,,0,SR-SS,3
4023,79,1013.1699999910779_57485,19,Female,ts-trial-spatial-span,ts-trial,143,509188.41,2,1,,2409.885,0,SR-SS,3
4024,80,1013.1699999910779_57485,19,Female,ts-trial-spatial-span,ts-trial,145,515817.57,,2,,,0,SR-SS,3
4035,91,1013.1699999910779_57485,19,Female,ts-trial-spatial-span,ts-trial,163,567843.14,1,0,,1802.855,1,DS-SS,4
4036,92,1013.1699999910779_57485,19,Female,ts-trial-spatial-span,ts-trial,165,574371.975,2,2,1,2265.29,0,DS-SS,4
4037,93,1013.1699999910779_57485,19,Female,ts-trial-spatial-span,ts-trial,167,581062.87,2,2,1,2357.49,0,DS-SS,4
4038,94,1013.1699999910779_57485,19,Female,ts-trial-spatial-span,ts-trial,169,587445.96,,0,,,0,DS-SS,4
4039,95,1013.1699999910779_57485,19,Female,ts-trial-spatial-span,ts-trial,171,593753.055,2,1,,2565.765,0,DS-SS,4
4040,96,1013.1699999910779_57485,19,Female,ts-trial-spatial-span,ts-trial,173,600470.215,2,2,1,1404.7,0,DS-SS,4
4041,97,1013.1699999910779_57485,19,Female,ts-trial-spatial-span,ts-trial,175,607477.48,2,1,,2635.21,0,DS-SS,4
4071,127,1013.1699999910779_57485,19,Female,ts-trial-spatial-span,ts-trial,224,755164.74,1,1,1,1551.545,1,DS-SS,5
4072,128,1013.1699999910779_57485,19,Female,ts-trial-spatial-span,ts-trial,226,761820.755,2,0,,1788.125,0,DS-SS,5
4073,129,1013.1699999910779_57485,19,Female,ts-trial-spatial-span,ts-trial,228,769040.485,1,1,1,2844.76,0,DS-SS,5
4074,130,1013.1699999910779_57485,19,Female,ts-trial-spatial-span,ts-trial,230,775386.59,2,0,,2343.215,0,DS-SS,5
4075,131,1013.1699999910779_57485,19,Female,ts-trial-spatial-span,ts-trial,232,782521.67,2,2,1,2501.425,0,DS-SS,5
4076,132,1013.1699999910779_57485,19,Female,ts-trial-spatial-span,ts-trial,234,789313.32,,2,,,0,DS-SS,5
4077,133,1013.1699999910779_57485,19,Female,ts-trial-spatial-span,ts-trial,236,795644.525,1,1,1,2487.515,0,DS-SS,5
4078,134,1013.1699999910779_57485,19,Female,ts-trial-spatial-span,ts-trial,238,802061.67,2,2,1,2791.62,0,DS-SS,5
4079,135,1013.1699999910779_57485,19,Female,ts-trial-spatial-span,ts-trial,240,808922.02,1,1,1,1498.875,0,DS-SS,5
4090,146,1013.1699999910779_57485,19,Female,ts-trial-spatial-span,ts-trial,258,870031.405,0,2,,2134.62,0,DS-SS,5
4091,147,1013.1699999910779_57485,19,Female,ts-trial-spatial-span,ts-trial,260,877000.635,0,1,,2361.115,0,DS-SS,5
4092,148,1013.1699999910779_57485,19,Female,ts-trial-spatial-span,ts-trial,262,884009.28,1,1,1,2385.735,0,DS-SS,5
4093,149,1013.1699999910779_57485,19,Female,ts-trial-spatial-span,ts-trial,264,890803.785,0,0,1,2914.54,0,DS-SS,5
4094,150,1013.1699999910779_57485,19,Female,ts-trial-spatial-span,ts-trial,266,897512.26,1,1,1,2798.25,0,DS-SS,5
4095,151,1013.1699999910779_57485,19,Female,ts-trial-spatial-span,ts-trial,268,904448.74,,0,,,0,DS-SS,5
4114,170,1013.1699999910779_57485,19,Female,ts-trial-spatial-span,ts-trial,300,1007255.835,0,1,,2606.015,1,DS-SS,6
4115,171,1013.1699999910779_57485,19,Female,ts-trial-spatial-span,ts-trial,302,1014312.44,0,2,,1115.965,0,DS-SS,6
4116,172,1013.1699999910779_57485,19,Female,ts-trial-spatial-span,ts-trial,304,1021452.7,0,0,1,1600.155,0,DS-SS,6
4117,173,1013.1699999910779_57485,19,Female,ts-trial-spatial-span,ts-trial,306,1028182.275,1,0,,2090.95,0,DS-SS,6
4118,174,1013.1699999910779_57485,19,Female,ts-trial-spatial-span,ts-trial,308,1034857.235,1,1,1,1940.25,0,DS-SS,6
4119,175,1013.1699999910779_57485,19,Female,ts-trial-spatial-span,ts-trial,310,1041272,1,1,1,1163.425,0,DS-SS,6
4120,176,1013.1699999910779_57485,19,Female,ts-trial-spatial-span,ts-trial,312,1047588.825,,1,,,0,DS-SS,6
4131,187,1013.1699999910779_57485,19,Female,ts-trial-spatial-span,ts-trial,330,1114885.515,,2,,,1,SR-SS,7
4132,188,1013.1699999910779_57485,19,Female,ts-trial-spatial-span,ts-trial,332,1121695.44,0,0,1,1300.1,0,SR-SS,7
4133,189,1013.1699999910779_57485,19,Female,ts-trial-spatial-span,ts-trial,334,1128427.36,,0,,,0,SR-SS,7
4134,190,1013.1699999910779_57485,19,Female,ts-trial-spatial-span,ts-trial,336,1135352.45,0,2,,2634.245,0,SR-SS,7
4135,191,1013.1699999910779_57485,19,Female,ts-trial-spatial-span,ts-trial,338,1142384.235,,1,,,0,SR-SS,7
4136,192,1013.1699999910779_57485,19,Female,ts-trial-spatial-span,ts-trial,340,1149284.755,0,0,1,1593.835,0,SR-SS,7
1291,2,1152.5099999271333_59120,20,Female,ts-trial-digit-span,ts-trial,5,24162.275,1,1,1,871.005,1,NONE-DS,1
1292,3,1152.5099999271333_59120,20,Female,ts-trial-digit-span,ts-trial,7,29867.59,0,0,1,1697.6,0,NONE-DS,1
1293,4,1152.5099999271333_59120,20,Female,ts-trial-digit-span,ts-trial,9,35323.625,0,0,1,1823.105,0,NONE-DS,1
1294,5,1152.5099999271333_59120,20,Female,ts-trial-digit-span,ts-trial,11,40588.15,1,1,1,1182.32,0,NONE-DS,1
1295,6,1152.5099999271333_59120,20,Female,ts-trial-digit-span,ts-trial,13,45397.75,2,2,1,1447.38,0,NONE-DS,1
1296,7,1152.5099999271333_59120,20,Female,ts-trial-digit-span,ts-trial,15,50297.41,0,0,1,1973.09,0,NONE-DS,1
1315,26,1152.5099999271333_59120,20,Female,ts-trial-digit-span,ts-trial,47,161775.765,1,1,1,935.035,1,SS-DS,2
1316,27,1152.5099999271333_59120,20,Female,ts-trial-digit-span,ts-trial,49,166698.01,1,1,1,814.515,0,SS-DS,2
1317,28,1152.5099999271333_59120,20,Female,ts-trial-digit-span,ts-trial,51,172120.12,1,2,,2241.54,0,SS-DS,2
1318,29,1152.5099999271333_59120,20,Female,ts-trial-digit-span,ts-trial,53,177098.375,0,0,1,1027.11,0,SS-DS,2
1319,30,1152.5099999271333_59120,20,Female,ts-trial-digit-span,ts-trial,55,182302.79,0,0,1,804.075,0,SS-DS,2
1320,31,1152.5099999271333_59120,20,Female,ts-trial-digit-span,ts-trial,57,187950.305,0,0,1,968.025,0,SS-DS,2
1321,32,1152.5099999271333_59120,20,Female,ts-trial-digit-span,ts-trial,59,193003.275,0,0,1,823.805,0,SS-DS,2
1322,33,1152.5099999271333_59120,20,Female,ts-trial-digit-span,ts-trial,61,198425.195,2,2,1,1305.68,0,SS-DS,2
1323,34,1152.5099999271333_59120,20,Female,ts-trial-digit-span,ts-trial,63,203655.395,0,0,1,856.76,0,SS-DS,2
1342,53,1152.5099999271333_59120,20,Female,ts-trial-digit-span,ts-trial,95,313506.91,1,1,1,839.7,1,SS-DS,3
1343,54,1152.5099999271333_59120,20,Female,ts-trial-digit-span,ts-trial,97,318750.215,0,0,1,982.225,0,SS-DS,3
1344,55,1152.5099999271333_59120,20,Female,ts-trial-digit-span,ts-trial,99,323635.765,2,2,1,1110.295,0,SS-DS,3
1345,56,1152.5099999271333_59120,20,Female,ts-trial-digit-span,ts-trial,101,329129.51,1,1,1,825.65,0,SS-DS,3
1346,57,1152.5099999271333_59120,20,Female,ts-trial-digit-span,ts-trial,103,334305.9,0,0,1,895.5,0,SS-DS,3
1347,58,1152.5099999271333_59120,20,Female,ts-trial-digit-span,ts-trial,105,339521.035,0,0,1,1994.2,0,SS-DS,3
1348,59,1152.5099999271333_59120,20,Female,ts-trial-digit-span,ts-trial,107,344861.525,0,0,1,933.99,0,SS-DS,3
1349,60,1152.5099999271333_59120,20,Female,ts-trial-digit-span,ts-trial,109,349941.785,0,0,1,1153.105,0,SS-DS,3
1350,61,1152.5099999271333_59120,20,Female,ts-trial-digit-span,ts-trial,111,355517.775,1,1,1,815.385,0,SS-DS,3
1359,70,1152.5099999271333_59120,20,Female,ts-trial-digit-span,ts-trial,125,404952.41,2,2,1,1166.46,1,SR-DS,4
1360,71,1152.5099999271333_59120,20,Female,ts-trial-digit-span,ts-trial,127,410335.825,0,0,1,822.935,0,SR-DS,4
1361,72,1152.5099999271333_59120,20,Female,ts-trial-digit-span,ts-trial,129,415598.18,2,2,1,1513.74,0,SR-DS,4
1362,73,1152.5099999271333_59120,20,Female,ts-trial-digit-span,ts-trial,131,421058.3,2,2,1,1223.05,0,SR-DS,4
1363,74,1152.5099999271333_59120,20,Female,ts-trial-digit-span,ts-trial,133,426291.89,2,2,1,1103.595,0,SR-DS,4
1364,75,1152.5099999271333_59120,20,Female,ts-trial-digit-span,ts-trial,135,431567.99,0,0,1,967.075,0,SR-DS,4
1375,86,1152.5099999271333_59120,20,Female,ts-trial-digit-span,ts-trial,153,497413.04,0,0,1,1014.23,1,SS-DS,5
1376,87,1152.5099999271333_59120,20,Female,ts-trial-digit-span,ts-trial,155,502442.06,1,1,1,1006.08,0,SS-DS,5
1377,88,1152.5099999271333_59120,20,Female,ts-trial-digit-span,ts-trial,157,507254.17,1,2,,775.36,0,SS-DS,5
1378,89,1152.5099999271333_59120,20,Female,ts-trial-digit-span,ts-trial,159,512042.945,0,0,1,968.14,0,SS-DS,5
1379,90,1152.5099999271333_59120,20,Female,ts-trial-digit-span,ts-trial,161,517760.585,0,0,1,905.525,0,SS-DS,5
1380,91,1152.5099999271333_59120,20,Female,ts-trial-digit-span,ts-trial,163,522889.64,1,1,1,1556.56,0,SS-DS,5
1381,92,1152.5099999271333_59120,20,Female,ts-trial-digit-span,ts-trial,165,527787.655,2,2,1,950.89,0,SS-DS,5
1382,93,1152.5099999271333_59120,20,Female,ts-trial-digit-span,ts-trial,167,532771.49,0,0,1,1142.36,0,SS-DS,5
1383,94,1152.5099999271333_59120,20,Female,ts-trial-digit-span,ts-trial,169,537596.04,1,1,1,1291.505,0,SS-DS,5
1392,103,1152.5099999271333_59120,20,Female,ts-trial-digit-span,ts-trial,183,587461.215,1,1,1,1731.155,1,SR-DS,6
1393,104,1152.5099999271333_59120,20,Female,ts-trial-digit-span,ts-trial,185,592302.205,1,1,1,1225.58,0,SR-DS,6
1394,105,1152.5099999271333_59120,20,Female,ts-trial-digit-span,ts-trial,187,597370.435,1,1,1,765.505,0,SR-DS,6
1395,106,1152.5099999271333_59120,20,Female,ts-trial-digit-span,ts-trial,189,602235.72,2,2,1,1333.07,0,SR-DS,6
1398,109,1152.5099999271333_59120,20,Female,ts-trial-digit-span,ts-trial,192,610914.56,2,2,1,1297.27,1,SR-DS,7
1399,110,1152.5099999271333_59120,20,Female,ts-trial-digit-span,ts-trial,194,616585.14,0,1,,1566.32,0,SR-DS,7
1400,111,1152.5099999271333_59120,20,Female,ts-trial-digit-span,ts-trial,196,622253.79,1,1,1,1039.485,0,SR-DS,7
1401,112,1152.5099999271333_59120,20,Female,ts-trial-digit-span,ts-trial,198,627393.735,2,2,1,1132.225,0,SR-DS,7
1434,145,1152.5099999271333_59120,20,Female,ts-trial-digit-span,ts-trial,254,821333.445,2,2,1,1863.89,1,SR-DS,8
1435,146,1152.5099999271333_59120,20,Female,ts-trial-digit-span,ts-trial,256,826945.19,2,2,1,1221.235,0,SR-DS,8
1436,147,1152.5099999271333_59120,20,Female,ts-trial-digit-span,ts-trial,258,832652.56,0,0,1,979.855,0,SR-DS,8
1437,148,1152.5099999271333_59120,20,Female,ts-trial-digit-span,ts-trial,260,838190.54,1,1,1,1288.11,0,SR-DS,8
1438,149,1152.5099999271333_59120,20,Female,ts-trial-digit-span,ts-trial,262,843625.66,2,2,1,910.835,0,SR-DS,8
1439,150,1152.5099999271333_59120,20,Female,ts-trial-digit-span,ts-trial,264,848897.82,1,1,1,899.635,0,SR-DS,8
1440,151,1152.5099999271333_59120,20,Female,ts-trial-digit-span,ts-trial,266,854632.53,2,2,1,1208.745,0,SR-DS,8
1441,152,1152.5099999271333_59120,20,Female,ts-trial-digit-span,ts-trial,268,859924.49,2,2,1,1087.1,0,SR-DS,8
1476,187,1152.5099999271333_59120,20,Female,ts-trial-digit-span,ts-trial,328,1071720.08,1,1,1,974.05,1,SR-DS,9
1477,188,1152.5099999271333_59120,20,Female,ts-trial-digit-span,ts-trial,330,1076932.485,0,0,1,782.145,0,SR-DS,9
1478,189,1152.5099999271333_59120,20,Female,ts-trial-digit-span,ts-trial,332,1081727.635,2,2,1,1525.88,0,SR-DS,9
1479,190,1152.5099999271333_59120,20,Female,ts-trial-digit-span,ts-trial,334,1087085.01,1,1,1,915.42,0,SR-DS,9
1480,191,1152.5099999271333_59120,20,Female,ts-trial-digit-span,ts-trial,336,1092064.625,2,2,1,1219.865,0,SR-DS,9
1481,192,1152.5099999271333_59120,20,Female,ts-trial-digit-span,ts-trial,338,1097006.51,2,2,1,1177.555,0,SR-DS,9
1482,193,1152.5099999271333_59120,20,Female,ts-trial-digit-span,ts-trial,340,1102532.685,0,0,1,1150.81,0,SR-DS,9
1493,204,1152.5099999271333_59120,20,Female,ts-trial-digit-span,ts-trial,358,1167178.59,2,2,1,998.435,1,SS-DS,10
1494,205,1152.5099999271333_59120,20,Female,ts-trial-digit-span,ts-trial,360,1172075.79,2,2,1,1108.205,0,SS-DS,10
1495,206,1152.5099999271333_59120,20,Female,ts-trial-digit-span,ts-trial,362,1177845.135,0,0,1,853.43,0,SS-DS,10
1496,207,1152.5099999271333_59120,20,Female,ts-trial-digit-span,ts-trial,364,1183041.87,1,1,1,1392.61,0,SS-DS,10
1298,9,1152.5099999271333_59120,20,Female,ts-trial-spatial-rotation,ts-trial,17,58964.695,0,0,1,2279.42,1,DS-SR,1
1299,10,1152.5099999271333_59120,20,Female,ts-trial-spatial-rotation,ts-trial,19,65892.37,1,1,1,2199.825,0,DS-SR,1
1300,11,1152.5099999271333_59120,20,Female,ts-trial-spatial-rotation,ts-trial,21,72710.155,0,0,1,2796.955,0,DS-SR,1
1301,12,1152.5099999271333_59120,20,Female,ts-trial-spatial-rotation,ts-trial,23,79968.725,0,1,,2104.895,0,DS-SR,1
1302,13,1152.5099999271333_59120,20,Female,ts-trial-spatial-rotation,ts-trial,25,87050.715,1,1,1,1804.155,0,DS-SR,1
1303,14,1152.5099999271333_59120,20,Female,ts-trial-spatial-rotation,ts-trial,27,94316.46,0,0,1,1482.725,0,DS-SR,1
1304,15,1152.5099999271333_59120,20,Female,ts-trial-spatial-rotation,ts-trial,29,100702.32,0,0,1,1925,0,DS-SR,1
1305,16,1152.5099999271333_59120,20,Female,ts-trial-spatial-rotation,ts-trial,31,107772.255,2,2,1,2182.95,0,DS-SR,1
1306,17,1152.5099999271333_59120,20,Female,ts-trial-spatial-rotation,ts-trial,33,114833.555,0,0,1,1508.92,0,DS-SR,1
1325,36,1152.5099999271333_59120,20,Female,ts-trial-spatial-rotation,ts-trial,65,208824.99,2,2,1,2491.24,1,DS-SR,2
1326,37,1152.5099999271333_59120,20,Female,ts-trial-spatial-rotation,ts-trial,67,215286.455,2,1,,2514.915,0,DS-SR,2
1327,38,1152.5099999271333_59120,20,Female,ts-trial-spatial-rotation,ts-trial,69,222205.63,2,2,1,2807.84,0,DS-SR,2
1328,39,1152.5099999271333_59120,20,Female,ts-trial-spatial-rotation,ts-trial,71,228539.65,0,0,1,1897.285,0,DS-SR,2
1329,40,1152.5099999271333_59120,20,Female,ts-trial-spatial-rotation,ts-trial,73,235432.51,1,1,1,1775.555,0,DS-SR,2
1330,41,1152.5099999271333_59120,20,Female,ts-trial-spatial-rotation,ts-trial,75,242148.415,0,0,1,1357.655,0,DS-SR,2
1352,63,1152.5099999271333_59120,20,Female,ts-trial-spatial-rotation,ts-trial,113,360683.78,2,1,,1628.765,1,DS-SR,3
1353,64,1152.5099999271333_59120,20,Female,ts-trial-spatial-rotation,ts-trial,115,367371.72,0,0,1,933.745,0,DS-SR,3
1354,65,1152.5099999271333_59120,20,Female,ts-trial-spatial-rotation,ts-trial,117,374141.125,0,0,1,1131.505,0,DS-SR,3
1355,66,1152.5099999271333_59120,20,Female,ts-trial-spatial-rotation,ts-trial,119,380629.51,0,0,1,1035.37,0,DS-SR,3
1356,67,1152.5099999271333_59120,20,Female,ts-trial-spatial-rotation,ts-trial,121,387746.815,0,0,1,1145.61,0,DS-SR,3
1357,68,1152.5099999271333_59120,20,Female,ts-trial-spatial-rotation,ts-trial,123,394781.57,1,1,1,1337.735,0,DS-SR,3
1385,96,1152.5099999271333_59120,20,Female,ts-trial-spatial-rotation,ts-trial,171,546270.62,1,1,1,1119.465,1,DS-SR,4
1386,97,1152.5099999271333_59120,20,Female,ts-trial-spatial-rotation,ts-trial,173,553148.105,0,2,,1757.44,0,DS-SR,4
1387,98,1152.5099999271333_59120,20,Female,ts-trial-spatial-rotation,ts-trial,175,559997.435,0,2,,1514.525,0,DS-SR,4
1388,99,1152.5099999271333_59120,20,Female,ts-trial-spatial-rotation,ts-trial,177,566633.265,0,0,1,1179.2,0,DS-SR,4
1389,100,1152.5099999271333_59120,20,Female,ts-trial-spatial-rotation,ts-trial,179,573523.33,1,1,1,1623.045,0,DS-SR,4
1390,101,1152.5099999271333_59120,20,Female,ts-trial-spatial-rotation,ts-trial,181,580791.165,1,1,1,1369.09,0,DS-SR,4
1412,123,1152.5099999271333_59120,20,Female,ts-trial-spatial-rotation,ts-trial,216,686942.315,0,1,,1461.75,1,SS-SR,5
1413,124,1152.5099999271333_59120,20,Female,ts-trial-spatial-rotation,ts-trial,218,693774.5,0,0,1,1224.365,0,SS-SR,5
1414,125,1152.5099999271333_59120,20,Female,ts-trial-spatial-rotation,ts-trial,220,701030.46,1,1,1,2128.235,0,SS-SR,5
1415,126,1152.5099999271333_59120,20,Female,ts-trial-spatial-rotation,ts-trial,222,708269.46,1,1,1,1925.545,0,SS-SR,5
1416,127,1152.5099999271333_59120,20,Female,ts-trial-spatial-rotation,ts-trial,224,714670.825,2,2,1,1706.22,0,SS-SR,5
1417,128,1152.5099999271333_59120,20,Female,ts-trial-spatial-rotation,ts-trial,226,721131.9,1,1,1,989.11,0,SS-SR,5
1418,129,1152.5099999271333_59120,20,Female,ts-trial-spatial-rotation,ts-trial,228,727564.65,2,0,,2104.105,0,SS-SR,5
1427,138,1152.5099999271333_59120,20,Female,ts-trial-spatial-rotation,ts-trial,242,781031.465,0,0,1,1584.395,1,SS-SR,6
1428,139,1152.5099999271333_59120,20,Female,ts-trial-spatial-rotation,ts-trial,244,787826.54,1,1,1,1317.76,0,SS-SR,6
1429,140,1152.5099999271333_59120,20,Female,ts-trial-spatial-rotation,ts-trial,246,794159.485,0,2,,2160.985,0,SS-SR,6
1430,141,1152.5099999271333_59120,20,Female,ts-trial-spatial-rotation,ts-trial,248,801294.18,2,1,,1899.27,0,SS-SR,6
1431,142,1152.5099999271333_59120,20,Female,ts-trial-spatial-rotation,ts-trial,250,807981.1,0,0,1,1544.85,0,SS-SR,6
1432,143,1152.5099999271333_59120,20,Female,ts-trial-spatial-rotation,ts-trial,252,814664.83,0,2,,2470.735,0,SS-SR,6
1451,162,1152.5099999271333_59120,20,Female,ts-trial-spatial-rotation,ts-trial,284,915553.585,0,0,1,1301.515,1,SS-SR,7
1452,163,1152.5099999271333_59120,20,Female,ts-trial-spatial-rotation,ts-trial,286,922731.71,0,1,,1030.86,0,SS-SR,7
1453,164,1152.5099999271333_59120,20,Female,ts-trial-spatial-rotation,ts-trial,288,929583.49,0,0,1,708.89,0,SS-SR,7
1454,165,1152.5099999271333_59120,20,Female,ts-trial-spatial-rotation,ts-trial,290,936105.66,2,2,1,1442.82,0,SS-SR,7
1455,166,1152.5099999271333_59120,20,Female,ts-trial-spatial-rotation,ts-trial,292,943153.78,1,1,1,343.145,0,SS-SR,7
1456,167,1152.5099999271333_59120,20,Female,ts-trial-spatial-rotation,ts-trial,294,950261.76,0,0,1,901.455,0,SS-SR,7
1457,168,1152.5099999271333_59120,20,Female,ts-trial-spatial-rotation,ts-trial,296,957481.79,0,1,,1915.855,0,SS-SR,7
1458,169,1152.5099999271333_59120,20,Female,ts-trial-spatial-rotation,ts-trial,298,964367.91,0,0,1,1823.44,0,SS-SR,7
1469,180,1152.5099999271333_59120,20,Female,ts-trial-spatial-rotation,ts-trial,316,1028190.17,1,0,,425.615,1,SS-SR,8
1470,181,1152.5099999271333_59120,20,Female,ts-trial-spatial-rotation,ts-trial,318,1034782.335,0,0,1,1103.42,0,SS-SR,8
1471,182,1152.5099999271333_59120,20,Female,ts-trial-spatial-rotation,ts-trial,320,1041539.89,0,2,,1204.66,0,SS-SR,8
1472,183,1152.5099999271333_59120,20,Female,ts-trial-spatial-rotation,ts-trial,322,1048470.16,1,2,,1300.885,0,SS-SR,8
1473,184,1152.5099999271333_59120,20,Female,ts-trial-spatial-rotation,ts-trial,324,1055259.035,0,0,1,1133.765,0,SS-SR,8
1474,185,1152.5099999271333_59120,20,Female,ts-trial-spatial-rotation,ts-trial,326,1061548.46,0,0,1,1884.11,0,SS-SR,8
1308,19,1152.5099999271333_59120,20,Female,ts-trial-spatial-span,ts-trial,35,121502.375,2,0,,1802.38,1,SR-SS,1
1309,20,1152.5099999271333_59120,20,Female,ts-trial-spatial-span,ts-trial,37,128327.22,0,1,,2277.465,0,SR-SS,1
1310,21,1152.5099999271333_59120,20,Female,ts-trial-spatial-span,ts-trial,39,135461.595,0,2,,2235.05,0,SR-SS,1
1311,22,1152.5099999271333_59120,20,Female,ts-trial-spatial-span,ts-trial,41,141772.82,1,2,,2815.415,0,SR-SS,1
1312,23,1152.5099999271333_59120,20,Female,ts-trial-spatial-span,ts-trial,43,148731.795,1,2,,2636.7,0,SR-SS,1
1313,24,1152.5099999271333_59120,20,Female,ts-trial-spatial-span,ts-trial,45,155111.52,1,1,1,2300.015,0,SR-SS,1
1332,43,1152.5099999271333_59120,20,Female,ts-trial-spatial-span,ts-trial,77,252317.05,2,2,1,1564.21,1,SR-SS,2
1333,44,1152.5099999271333_59120,20,Female,ts-trial-spatial-span,ts-trial,79,258887.62,2,2,1,1812.275,0,SR-SS,2
1334,45,1152.5099999271333_59120,20,Female,ts-trial-spatial-span,ts-trial,81,266085.505,1,1,1,2478.32,0,SR-SS,2
1335,46,1152.5099999271333_59120,20,Female,ts-trial-spatial-span,ts-trial,83,273004.68,1,1,1,2096.31,0,SR-SS,2
1336,47,1152.5099999271333_59120,20,Female,ts-trial-spatial-span,ts-trial,85,279575.795,1,1,1,2906.305,0,SR-SS,2
1337,48,1152.5099999271333_59120,20,Female,ts-trial-spatial-span,ts-trial,87,285880.89,1,0,,2532.98,0,SR-SS,2
1338,49,1152.5099999271333_59120,20,Female,ts-trial-spatial-span,ts-trial,89,292689.945,1,2,,1523.475,0,SR-SS,2
1339,50,1152.5099999271333_59120,20,Female,ts-trial-spatial-span,ts-trial,91,299789.545,1,1,1,2330.945,0,SR-SS,2
1340,51,1152.5099999271333_59120,20,Female,ts-trial-spatial-span,ts-trial,93,306842.72,1,0,,970.465,0,SR-SS,2
1366,77,1152.5099999271333_59120,20,Female,ts-trial-spatial-span,ts-trial,137,440235.39,0,2,,1533.63,1,DS-SS,3
1367,78,1152.5099999271333_59120,20,Female,ts-trial-spatial-span,ts-trial,139,446585.45,0,2,,1682.08,0,DS-SS,3
1368,79,1152.5099999271333_59120,20,Female,ts-trial-spatial-span,ts-trial,141,453503.925,1,1,1,1548.9,0,DS-SS,3
1369,80,1152.5099999271333_59120,20,Female,ts-trial-spatial-span,ts-trial,143,460111.34,1,1,1,2719.485,0,DS-SS,3
1370,81,1152.5099999271333_59120,20,Female,ts-trial-spatial-span,ts-trial,145,467118.415,2,0,,2513.455,0,DS-SS,3
1371,82,1152.5099999271333_59120,20,Female,ts-trial-spatial-span,ts-trial,147,473635.05,0,1,,1633.16,0,DS-SS,3
1372,83,1152.5099999271333_59120,20,Female,ts-trial-spatial-span,ts-trial,149,480342.195,0,2,,964.695,0,DS-SS,3
1373,84,1152.5099999271333_59120,20,Female,ts-trial-spatial-span,ts-trial,151,487244.39,1,0,,1684.4,0,DS-SS,3
1403,114,1152.5099999271333_59120,20,Female,ts-trial-spatial-span,ts-trial,200,632560.34,1,0,,1517.39,1,DS-SS,4
1404,115,1152.5099999271333_59120,20,Female,ts-trial-spatial-span,ts-trial,202,639346.525,0,1,,947.095,0,DS-SS,4
1405,116,1152.5099999271333_59120,20,Female,ts-trial-spatial-span,ts-trial,204,646415.765,1,1,1,1906.57,0,DS-SS,4
1406,117,1152.5099999271333_59120,20,Female,ts-trial-spatial-span,ts-trial,206,652689.665,0,0,1,1823.615,0,DS-SS,4
1407,118,1152.5099999271333_59120,20,Female,ts-trial-spatial-span,ts-trial,208,659327.46,0,2,,1024.735,0,DS-SS,4
1408,119,1152.5099999271333_59120,20,Female,ts-trial-spatial-span,ts-trial,210,666374.46,0,1,,2079.68,0,DS-SS,4
1409,120,1152.5099999271333_59120,20,Female,ts-trial-spatial-span,ts-trial,212,673329.47,0,2,,1724.11,0,DS-SS,4
1410,121,1152.5099999271333_59120,20,Female,ts-trial-spatial-span,ts-trial,214,680275.28,2,2,1,2472.32,0,DS-SS,4
1420,131,1152.5099999271333_59120,20,Female,ts-trial-spatial-span,ts-trial,230,737735.79,0,2,,1698.05,1,SR-SS,5
1421,132,1152.5099999271333_59120,20,Female,ts-trial-spatial-span,ts-trial,232,744172.92,0,0,1,1495.68,0,SR-SS,5
1422,133,1152.5099999271333_59120,20,Female,ts-trial-spatial-span,ts-trial,234,750943.765,2,2,1,1414.74,0,SR-SS,5
1423,134,1152.5099999271333_59120,20,Female,ts-trial-spatial-span,ts-trial,236,757338.86,2,2,1,1699.76,0,SR-SS,5
1424,135,1152.5099999271333_59120,20,Female,ts-trial-spatial-span,ts-trial,238,763821.645,0,1,,984.87,0,SR-SS,5
1425,136,1152.5099999271333_59120,20,Female,ts-trial-spatial-span,ts-trial,240,770861.835,1,1,1,1026.725,0,SR-SS,5
1443,154,1152.5099999271333_59120,20,Female,ts-trial-spatial-span,ts-trial,270,868591.375,0,2,,1464.285,1,DS-SS,6
1444,155,1152.5099999271333_59120,20,Female,ts-trial-spatial-span,ts-trial,272,875574.86,2,2,1,1742.935,0,DS-SS,6
1445,156,1152.5099999271333_59120,20,Female,ts-trial-spatial-span,ts-trial,274,882042.935,1,1,1,1368.42,0,DS-SS,6
1446,157,1152.5099999271333_59120,20,Female,ts-trial-spatial-span,ts-trial,276,889192.68,2,2,1,1877.715,0,DS-SS,6
1447,158,1152.5099999271333_59120,20,Female,ts-trial-spatial-span,ts-trial,278,895659.68,2,2,1,970.95,0,DS-SS,6
1448,159,1152.5099999271333_59120,20,Female,ts-trial-spatial-span,ts-trial,280,901932.72,0,2,,1316.84,0,DS-SS,6
1449,160,1152.5099999271333_59120,20,Female,ts-trial-spatial-span,ts-trial,282,908888.725,0,0,1,1255.63,0,DS-SS,6
1460,171,1152.5099999271333_59120,20,Female,ts-trial-spatial-span,ts-trial,300,971037.535,1,0,,548.845,1,SR-SS,7
1461,172,1152.5099999271333_59120,20,Female,ts-trial-spatial-span,ts-trial,302,978281.04,1,0,,1702.86,0,SR-SS,7
1462,173,1152.5099999271333_59120,20,Female,ts-trial-spatial-span,ts-trial,304,984604.45,0,1,,1672.335,0,SR-SS,7
1463,174,1152.5099999271333_59120,20,Female,ts-trial-spatial-span,ts-trial,306,990960.295,1,2,,1345.815,0,SR-SS,7
1464,175,1152.5099999271333_59120,20,Female,ts-trial-spatial-span,ts-trial,308,998034.765,1,0,,381.93,0,SR-SS,7
1465,176,1152.5099999271333_59120,20,Female,ts-trial-spatial-span,ts-trial,310,1004886.135,0,0,1,1140.885,0,SR-SS,7
1466,177,1152.5099999271333_59120,20,Female,ts-trial-spatial-span,ts-trial,312,1011718.42,0,2,,811.55,0,SR-SS,7
1467,178,1152.5099999271333_59120,20,Female,ts-trial-spatial-span,ts-trial,314,1018020.08,1,1,1,1166.385,0,SR-SS,7
1484,195,1152.5099999271333_59120,20,Female,ts-trial-spatial-span,ts-trial,342,1107698.51,0,2,,1840.515,1,DS-SS,8
1485,196,1152.5099999271333_59120,20,Female,ts-trial-spatial-span,ts-trial,344,1114961.34,0,0,1,490.435,0,DS-SS,8
1486,197,1152.5099999271333_59120,20,Female,ts-trial-spatial-span,ts-trial,346,1122205.745,0,0,1,1731.695,0,DS-SS,8
1487,198,1152.5099999271333_59120,20,Female,ts-trial-spatial-span,ts-trial,348,1129328.375,0,2,,1202.825,0,DS-SS,8
1488,199,1152.5099999271333_59120,20,Female,ts-trial-spatial-span,ts-trial,350,1136079.565,0,0,1,1881.905,0,DS-SS,8
1489,200,1152.5099999271333_59120,20,Female,ts-trial-spatial-span,ts-trial,352,1143251.695,1,1,1,1423.095,0,DS-SS,8
1490,201,1152.5099999271333_59120,20,Female,ts-trial-spatial-span,ts-trial,354,1149921.485,2,2,1,1188.93,0,DS-SS,8
1491,202,1152.5099999271333_59120,20,Female,ts-trial-spatial-span,ts-trial,356,1157005.6,0,2,,2397.99,0,DS-SS,8
4368,2,1168.1700000001456_40690,20,Male,ts-trial-digit-span,ts-trial,5,72988.25,1,1,1,1865.42,1,NONE-DS,1
4369,3,1168.1700000001456_40690,20,Male,ts-trial-digit-span,ts-trial,7,77983.62,0,0,1,2094.68,0,NONE-DS,1
4370,4,1168.1700000001456_40690,20,Male,ts-trial-digit-span,ts-trial,9,82813.74,1,1,1,1764.685,0,NONE-DS,1
4371,5,1168.1700000001456_40690,20,Male,ts-trial-digit-span,ts-trial,11,88421.625,1,1,1,2105.67,0,NONE-DS,1
4372,6,1168.1700000001456_40690,20,Male,ts-trial-digit-span,ts-trial,13,93566.84,2,2,1,1907.185,0,NONE-DS,1
4373,7,1168.1700000001456_40690,20,Male,ts-trial-digit-span,ts-trial,15,98798.8,2,2,1,1782.045,0,NONE-DS,1
4374,8,1168.1700000001456_40690,20,Male,ts-trial-digit-span,ts-trial,17,103799.455,2,2,1,1895.745,0,NONE-DS,1
4375,9,1168.1700000001456_40690,20,Male,ts-trial-digit-span,ts-trial,19,109466.435,,0,,,0,NONE-DS,1
4376,10,1168.1700000001456_40690,20,Male,ts-trial-digit-span,ts-trial,21,115052.36,2,2,1,1639.745,0,NONE-DS,1
4386,20,1168.1700000001456_40690,20,Male,ts-trial-digit-span,ts-trial,37,173094.27,,2,,,1,SS-DS,2
4387,21,1168.1700000001456_40690,20,Male,ts-trial-digit-span,ts-trial,39,178588.41,0,1,,1716.58,0,SS-DS,2
4388,22,1168.1700000001456_40690,20,Male,ts-trial-digit-span,ts-trial,41,183635.36,2,2,1,1285.01,0,SS-DS,2
4389,23,1168.1700000001456_40690,20,Male,ts-trial-digit-span,ts-trial,43,188584.68,1,1,1,1802.375,0,SS-DS,2
4390,24,1168.1700000001456_40690,20,Male,ts-trial-digit-span,ts-trial,45,194315.365,1,1,1,1968.715,0,SS-DS,2
4391,25,1168.1700000001456_40690,20,Male,ts-trial-digit-span,ts-trial,47,199609.215,2,2,1,2481.65,0,SS-DS,2
4392,26,1168.1700000001456_40690,20,Male,ts-trial-digit-span,ts-trial,49,204965.96,2,2,1,1353.21,0,SS-DS,2
4403,37,1168.1700000001456_40690,20,Male,ts-trial-digit-span,ts-trial,67,267364.305,1,1,1,2669.925,1,SR-DS,3
4404,38,1168.1700000001456_40690,20,Male,ts-trial-digit-span,ts-trial,69,272260.94,1,1,1,1643.015,0,SR-DS,3
4405,39,1168.1700000001456_40690,20,Male,ts-trial-digit-span,ts-trial,71,277638.675,0,0,1,1633.485,0,SR-DS,3
4406,40,1168.1700000001456_40690,20,Male,ts-trial-digit-span,ts-trial,73,282866.65,1,1,1,1436.48,0,SR-DS,3
4407,41,1168.1700000001456_40690,20,Male,ts-trial-digit-span,ts-trial,75,288122.65,0,0,1,1092.58,0,SR-DS,3
4408,42,1168.1700000001456_40690,20,Male,ts-trial-digit-span,ts-trial,77,293311.825,1,1,1,1936.29,0,SR-DS,3
4409,43,1168.1700000001456_40690,20,Male,ts-trial-digit-span,ts-trial,79,298137.87,0,0,1,2294.29,0,SR-DS,3
4410,44,1168.1700000001456_40690,20,Male,ts-trial-digit-span,ts-trial,81,303518.56,0,1,,1834.64,0,SR-DS,3
4448,82,1168.1700000001456_40690,20,Male,ts-trial-digit-span,ts-trial,147,531447.35,1,1,1,2337.94,1,SS-DS,4
4449,83,1168.1700000001456_40690,20,Male,ts-trial-digit-span,ts-trial,149,536446.82,2,0,,2989.37,0,SS-DS,4
4450,84,1168.1700000001456_40690,20,Male,ts-trial-digit-span,ts-trial,151,541234.06,,2,,,0,SS-DS,4
4451,85,1168.1700000001456_40690,20,Male,ts-trial-digit-span,ts-trial,153,546873.025,1,1,1,1351.315,0,SS-DS,4
4452,86,1168.1700000001456_40690,20,Male,ts-trial-digit-span,ts-trial,155,551829.7,0,0,1,1346.655,0,SS-DS,4
4453,87,1168.1700000001456_40690,20,Male,ts-trial-digit-span,ts-trial,157,557498.665,,2,,,0,SS-DS,4
4454,88,1168.1700000001456_40690,20,Male,ts-trial-digit-span,ts-trial,159,562843.305,0,0,1,1941.1,0,SS-DS,4
4455,89,1168.1700000001456_40690,20,Male,ts-trial-digit-span,ts-trial,161,568086.31,1,1,1,1387.29,0,SS-DS,4
4465,99,1168.1700000001456_40690,20,Male,ts-trial-digit-span,ts-trial,177,626489.32,0,0,1,2102.375,1,SS-DS,5
4466,100,1168.1700000001456_40690,20,Male,ts-trial-digit-span,ts-trial,179,631574.58,2,2,1,1773.97,0,SS-DS,5
4467,101,1168.1700000001456_40690,20,Male,ts-trial-digit-span,ts-trial,181,636607.13,0,0,1,1745.275,0,SS-DS,5
4468,102,1168.1700000001456_40690,20,Male,ts-trial-digit-span,ts-trial,183,641553.945,1,1,1,1404.54,0,SS-DS,5
4469,103,1168.1700000001456_40690,20,Male,ts-trial-digit-span,ts-trial,185,646743.04,0,2,,1124.465,0,SS-DS,5
4470,104,1168.1700000001456_40690,20,Male,ts-trial-digit-span,ts-trial,187,652484.72,0,0,1,2866.665,0,SS-DS,5
4471,105,1168.1700000001456_40690,20,Male,ts-trial-digit-span,ts-trial,189,657876.21,2,2,1,1293.175,0,SS-DS,5
4485,119,1168.1700000001456_40690,20,Male,ts-trial-digit-span,ts-trial,210,727444.71,0,0,1,2434.285,1,SR-DS,6
4486,120,1168.1700000001456_40690,20,Male,ts-trial-digit-span,ts-trial,212,732591.5,2,2,1,1471.035,0,SR-DS,6
4487,121,1168.1700000001456_40690,20,Male,ts-trial-digit-span,ts-trial,214,737616.115,1,2,,2851.22,0,SR-DS,6
4488,122,1168.1700000001456_40690,20,Male,ts-trial-digit-span,ts-trial,216,742623,0,1,,2924.56,0,SR-DS,6
4489,123,1168.1700000001456_40690,20,Male,ts-trial-digit-span,ts-trial,218,747927.555,1,1,1,1494.81,0,SR-DS,6
4490,124,1168.1700000001456_40690,20,Male,ts-trial-digit-span,ts-trial,220,753215.41,,0,,,0,SR-DS,6
4491,125,1168.1700000001456_40690,20,Male,ts-trial-digit-span,ts-trial,222,758657.865,1,1,1,1508.675,0,SR-DS,6
4528,162,1168.1700000001456_40690,20,Male,ts-trial-digit-span,ts-trial,286,979682.185,2,2,1,1483.62,1,SR-DS,7
4529,163,1168.1700000001456_40690,20,Male,ts-trial-digit-span,ts-trial,288,984587.96,0,0,1,1130.54,0,SR-DS,7
4530,164,1168.1700000001456_40690,20,Male,ts-trial-digit-span,ts-trial,290,989522.76,1,1,1,1201.965,0,SR-DS,7
4531,165,1168.1700000001456_40690,20,Male,ts-trial-digit-span,ts-trial,292,994923.39,0,1,,1009.22,0,SR-DS,7
4532,166,1168.1700000001456_40690,20,Male,ts-trial-digit-span,ts-trial,294,1000026.72,0,0,1,2105.95,0,SR-DS,7
4533,167,1168.1700000001456_40690,20,Male,ts-trial-digit-span,ts-trial,296,1005282.72,,1,,,0,SR-DS,7
4534,168,1168.1700000001456_40690,20,Male,ts-trial-digit-span,ts-trial,298,1010426.915,1,0,,2007.765,0,SR-DS,7
4560,194,1168.1700000001456_40690,20,Male,ts-trial-digit-span,ts-trial,342,1163259.77,0,0,1,2268.39,1,SS-DS,8
4561,195,1168.1700000001456_40690,20,Male,ts-trial-digit-span,ts-trial,344,1168849.455,1,1,1,1437.455,0,SS-DS,8
4562,196,1168.1700000001456_40690,20,Male,ts-trial-digit-span,ts-trial,346,1173869.94,,0,,,0,SS-DS,8
4563,197,1168.1700000001456_40690,20,Male,ts-trial-digit-span,ts-trial,348,1179375.335,2,2,1,1585.565,0,SS-DS,8
4564,198,1168.1700000001456_40690,20,Male,ts-trial-digit-span,ts-trial,350,1185070.07,,0,,,0,SS-DS,8
4565,199,1168.1700000001456_40690,20,Male,ts-trial-digit-span,ts-trial,352,1190274.225,0,1,,2279.545,0,SS-DS,8
4566,200,1168.1700000001456_40690,20,Male,ts-trial-digit-span,ts-trial,354,1195217.99,2,2,1,1789.02,0,SS-DS,8
4576,210,1168.1700000001456_40690,20,Male,ts-trial-digit-span,ts-trial,370,1252407.3,2,2,1,1541.865,1,SR-DS,9
4577,211,1168.1700000001456_40690,20,Male,ts-trial-digit-span,ts-trial,372,1257549.33,0,0,1,2396.525,0,SR-DS,9
4578,212,1168.1700000001456_40690,20,Male,ts-trial-digit-span,ts-trial,374,1262397.375,0,0,1,2926.47,0,SR-DS,9
4394,28,1168.1700000001456_40690,20,Male,ts-trial-spatial-rotation,ts-trial,51,213623.23,0,0,1,1334.27,1,DS-SR,1
4395,29,1168.1700000001456_40690,20,Male,ts-trial-spatial-rotation,ts-trial,53,220808.54,0,2,,1561.485,0,DS-SR,1
4396,30,1168.1700000001456_40690,20,Male,ts-trial-spatial-rotation,ts-trial,55,227184.51,2,1,,2347.685,0,DS-SR,1
4397,31,1168.1700000001456_40690,20,Male,ts-trial-spatial-rotation,ts-trial,57,233569.46,2,2,1,2584.685,0,DS-SR,1
4398,32,1168.1700000001456_40690,20,Male,ts-trial-spatial-rotation,ts-trial,59,240737.305,1,1,1,1270.925,0,DS-SR,1
4399,33,1168.1700000001456_40690,20,Male,ts-trial-spatial-rotation,ts-trial,61,247235.935,1,1,1,2160.31,0,DS-SR,1
4400,34,1168.1700000001456_40690,20,Male,ts-trial-spatial-rotation,ts-trial,63,253893.12,1,1,1,2082.065,0,DS-SR,1
4401,35,1168.1700000001456_40690,20,Male,ts-trial-spatial-rotation,ts-trial,65,260707.84,2,2,1,1510.435,0,DS-SR,1
4412,46,1168.1700000001456_40690,20,Male,ts-trial-spatial-rotation,ts-trial,83,312174.675,1,0,,2599.8,1,DS-SR,2
4413,47,1168.1700000001456_40690,20,Male,ts-trial-spatial-rotation,ts-trial,85,318602.165,2,2,1,1138,0,DS-SR,2
4414,48,1168.1700000001456_40690,20,Male,ts-trial-spatial-rotation,ts-trial,87,325362.055,0,0,1,2552.03,0,DS-SR,2
4415,49,1168.1700000001456_40690,20,Male,ts-trial-spatial-rotation,ts-trial,89,332604.8,,0,,,0,DS-SR,2
4416,50,1168.1700000001456_40690,20,Male,ts-trial-spatial-rotation,ts-trial,91,339709.755,2,2,1,1544.305,0,DS-SR,2
4417,51,1168.1700000001456_40690,20,Male,ts-trial-spatial-rotation,ts-trial,93,346661.405,,0,,,0,DS-SR,2
4418,52,1168.1700000001456_40690,20,Male,ts-trial-spatial-rotation,ts-trial,95,353688.405,1,1,1,1568.755,0,DS-SR,2
4419,53,1168.1700000001456_40690,20,Male,ts-trial-spatial-rotation,ts-trial,97,360590.9,1,2,,2153.4,0,DS-SR,2
4431,65,1168.1700000001456_40690,20,Male,ts-trial-spatial-rotation,ts-trial,117,431508.805,2,2,1,1530.03,1,SS-SR,3
4432,66,1168.1700000001456_40690,20,Male,ts-trial-spatial-rotation,ts-trial,119,438642.35,0,0,1,1427.11,0,SS-SR,3
4433,67,1168.1700000001456_40690,20,Male,ts-trial-spatial-rotation,ts-trial,121,445260.735,2,2,1,2135.395,0,SS-SR,3
4434,68,1168.1700000001456_40690,20,Male,ts-trial-spatial-rotation,ts-trial,123,451910.835,0,0,1,1599.48,0,SS-SR,3
4435,69,1168.1700000001456_40690,20,Male,ts-trial-spatial-rotation,ts-trial,125,458371.6,,0,,,0,SS-SR,3
4436,70,1168.1700000001456_40690,20,Male,ts-trial-spatial-rotation,ts-trial,127,465525.455,0,0,1,2159.825,0,SS-SR,3
4437,71,1168.1700000001456_40690,20,Male,ts-trial-spatial-rotation,ts-trial,129,472403.05,1,1,1,1725.26,0,SS-SR,3
4473,107,1168.1700000001456_40690,20,Male,ts-trial-spatial-rotation,ts-trial,191,663033.755,2,2,1,1091.065,1,DS-SR,4
4474,108,1168.1700000001456_40690,20,Male,ts-trial-spatial-rotation,ts-trial,193,669536.18,0,0,1,1984.42,0,DS-SR,4
4475,109,1168.1700000001456_40690,20,Male,ts-trial-spatial-rotation,ts-trial,195,676332,0,0,1,1670.725,0,DS-SR,4
4476,110,1168.1700000001456_40690,20,Male,ts-trial-spatial-rotation,ts-trial,197,683025.05,1,1,1,1660.365,0,DS-SR,4
4479,113,1168.1700000001456_40690,20,Male,ts-trial-spatial-rotation,ts-trial,200,693188.225,2,2,1,1312.625,1,DS-SR,5
4480,114,1168.1700000001456_40690,20,Male,ts-trial-spatial-rotation,ts-trial,202,700317.945,1,1,1,1431.72,0,DS-SR,5
4481,115,1168.1700000001456_40690,20,Male,ts-trial-spatial-rotation,ts-trial,204,707486.665,0,0,1,2063.765,0,DS-SR,5
4482,116,1168.1700000001456_40690,20,Male,ts-trial-spatial-rotation,ts-trial,206,713977.36,2,2,1,2770.24,0,DS-SR,5
4483,117,1168.1700000001456_40690,20,Male,ts-trial-spatial-rotation,ts-trial,208,720787.1,0,0,1,2945.53,0,DS-SR,5
4503,137,1168.1700000001456_40690,20,Male,ts-trial-spatial-rotation,ts-trial,242,824158.17,0,0,1,1730.465,1,SS-SR,6
4504,138,1168.1700000001456_40690,20,Male,ts-trial-spatial-rotation,ts-trial,244,831364.525,1,1,1,2242.04,0,SS-SR,6
4505,139,1168.1700000001456_40690,20,Male,ts-trial-spatial-rotation,ts-trial,246,838404.7,0,0,1,1867.975,0,SS-SR,6
4506,140,1168.1700000001456_40690,20,Male,ts-trial-spatial-rotation,ts-trial,248,845581.53,1,1,1,1939.145,0,SS-SR,6
4507,141,1168.1700000001456_40690,20,Male,ts-trial-spatial-rotation,ts-trial,250,851897.68,2,2,1,2965.915,0,SS-SR,6
4508,142,1168.1700000001456_40690,20,Male,ts-trial-spatial-rotation,ts-trial,252,858220.86,1,1,1,2629.735,0,SS-SR,6
4509,143,1168.1700000001456_40690,20,Male,ts-trial-spatial-rotation,ts-trial,254,864879.935,1,1,1,1848.64,0,SS-SR,6
4510,144,1168.1700000001456_40690,20,Male,ts-trial-spatial-rotation,ts-trial,256,871876.33,0,0,1,1642.37,0,SS-SR,6
4519,153,1168.1700000001456_40690,20,Male,ts-trial-spatial-rotation,ts-trial,270,923056.8,0,0,1,1971.09,1,SS-SR,7
4520,154,1168.1700000001456_40690,20,Male,ts-trial-spatial-rotation,ts-trial,272,930085.645,1,1,1,967.78,0,SS-SR,7
4521,155,1168.1700000001456_40690,20,Male,ts-trial-spatial-rotation,ts-trial,274,936504.48,1,2,,2525.09,0,SS-SR,7
4522,156,1168.1700000001456_40690,20,Male,ts-trial-spatial-rotation,ts-trial,276,942769.7,1,1,1,2377.98,0,SS-SR,7
4523,157,1168.1700000001456_40690,20,Male,ts-trial-spatial-rotation,ts-trial,278,949121.77,1,2,,2986.86,0,SS-SR,7
4524,158,1168.1700000001456_40690,20,Male,ts-trial-spatial-rotation,ts-trial,280,955911.595,0,2,,2126.01,0,SS-SR,7
4525,159,1168.1700000001456_40690,20,Male,ts-trial-spatial-rotation,ts-trial,282,962319.46,2,2,1,2057.17,0,SS-SR,7
4526,160,1168.1700000001456_40690,20,Male,ts-trial-spatial-rotation,ts-trial,284,969526.215,2,2,1,1708.525,0,SS-SR,7
4544,178,1168.1700000001456_40690,20,Male,ts-trial-spatial-rotation,ts-trial,314,1066024.74,1,2,,1701.405,1,SS-SR,8
4545,179,1168.1700000001456_40690,20,Male,ts-trial-spatial-rotation,ts-trial,316,1072704.49,1,1,1,2514.41,0,SS-SR,8
4546,180,1168.1700000001456_40690,20,Male,ts-trial-spatial-rotation,ts-trial,318,1079640.935,2,2,1,2110.6,0,SS-SR,8
4547,181,1168.1700000001456_40690,20,Male,ts-trial-spatial-rotation,ts-trial,320,1085917.145,0,0,1,2545.41,0,SS-SR,8
4548,182,1168.1700000001456_40690,20,Male,ts-trial-spatial-rotation,ts-trial,322,1092550.41,2,2,1,2021.155,0,SS-SR,8
4549,183,1168.1700000001456_40690,20,Male,ts-trial-spatial-rotation,ts-trial,324,1099166.74,,1,,,0,SS-SR,8
4550,184,1168.1700000001456_40690,20,Male,ts-trial-spatial-rotation,ts-trial,326,1105792.97,1,0,,2304.93,0,SS-SR,8
4551,185,1168.1700000001456_40690,20,Male,ts-trial-spatial-rotation,ts-trial,328,1112079.225,,1,,,0,SS-SR,8
4568,202,1168.1700000001456_40690,20,Male,ts-trial-spatial-rotation,ts-trial,356,1200374.44,0,0,1,1610.73,1,DS-SR,9
4569,203,1168.1700000001456_40690,20,Male,ts-trial-spatial-rotation,ts-trial,358,1207592.89,0,1,,2173,0,DS-SR,9
4570,204,1168.1700000001456_40690,20,Male,ts-trial-spatial-rotation,ts-trial,360,1214335.87,1,1,1,2698.03,0,DS-SR,9
4571,205,1168.1700000001456_40690,20,Male,ts-trial-spatial-rotation,ts-trial,362,1221422.955,1,1,1,1747.035,0,DS-SR,9
4572,206,1168.1700000001456_40690,20,Male,ts-trial-spatial-rotation,ts-trial,364,1228677.575,0,0,1,2056.415,0,DS-SR,9
4573,207,1168.1700000001456_40690,20,Male,ts-trial-spatial-rotation,ts-trial,366,1235140.195,,0,,,0,DS-SR,9
4574,208,1168.1700000001456_40690,20,Male,ts-trial-spatial-rotation,ts-trial,368,1242250.27,1,1,1,1551.73,0,DS-SR,9
4378,12,1168.1700000001456_40690,20,Male,ts-trial-spatial-span,ts-trial,23,123708.435,,1,,,1,DS-SS,1
4379,13,1168.1700000001456_40690,20,Male,ts-trial-spatial-span,ts-trial,25,130102.05,2,0,,1789.96,0,DS-SS,1
4380,14,1168.1700000001456_40690,20,Male,ts-trial-spatial-span,ts-trial,27,136676.475,2,2,1,1671.465,0,DS-SS,1
4381,15,1168.1700000001456_40690,20,Male,ts-trial-spatial-span,ts-trial,29,143234.99,2,2,1,1425.2,0,DS-SS,1
4382,16,1168.1700000001456_40690,20,Male,ts-trial-spatial-span,ts-trial,31,149877.19,2,2,1,1526.025,0,DS-SS,1
4383,17,1168.1700000001456_40690,20,Male,ts-trial-spatial-span,ts-trial,33,156502.335,2,1,,1972.65,0,DS-SS,1
4384,18,1168.1700000001456_40690,20,Male,ts-trial-spatial-span,ts-trial,35,162937.895,1,1,1,1682.79,0,DS-SS,1
4421,55,1168.1700000001456_40690,20,Male,ts-trial-spatial-span,ts-trial,99,370746.9,0,0,1,2927.51,1,SR-SS,2
4422,56,1168.1700000001456_40690,20,Male,ts-trial-spatial-span,ts-trial,101,377208.55,,1,,,0,SR-SS,2
4423,57,1168.1700000001456_40690,20,Male,ts-trial-spatial-span,ts-trial,103,383927.51,2,1,,1714.305,0,SR-SS,2
4424,58,1168.1700000001456_40690,20,Male,ts-trial-spatial-span,ts-trial,105,391180.175,2,2,1,1581.13,0,SR-SS,2
4425,59,1168.1700000001456_40690,20,Male,ts-trial-spatial-span,ts-trial,107,398029.795,0,0,1,2316.425,0,SR-SS,2
4426,60,1168.1700000001456_40690,20,Male,ts-trial-spatial-span,ts-trial,109,404405.87,1,1,1,1554.435,0,SR-SS,2
4427,61,1168.1700000001456_40690,20,Male,ts-trial-spatial-span,ts-trial,111,411273.545,1,2,,2667.835,0,SR-SS,2
4428,62,1168.1700000001456_40690,20,Male,ts-trial-spatial-span,ts-trial,113,418060.6,0,0,1,1170.015,0,SR-SS,2
4429,63,1168.1700000001456_40690,20,Male,ts-trial-spatial-span,ts-trial,115,424852.18,0,0,1,1817.215,0,SR-SS,2
4439,73,1168.1700000001456_40690,20,Male,ts-trial-spatial-span,ts-trial,131,479060.71,2,2,1,2298.13,1,SR-SS,3
4440,74,1168.1700000001456_40690,20,Male,ts-trial-spatial-span,ts-trial,133,485684.63,0,0,1,1158.8,0,SR-SS,3
4441,75,1168.1700000001456_40690,20,Male,ts-trial-spatial-span,ts-trial,135,492121.39,1,0,,1950.89,0,SR-SS,3
4442,76,1168.1700000001456_40690,20,Male,ts-trial-spatial-span,ts-trial,137,498752.61,0,0,1,1359.625,0,SR-SS,3
4443,77,1168.1700000001456_40690,20,Male,ts-trial-spatial-span,ts-trial,139,505060.765,2,2,1,1226.625,0,SR-SS,3
4444,78,1168.1700000001456_40690,20,Male,ts-trial-spatial-span,ts-trial,141,511371.885,0,2,,2358.24,0,SR-SS,3
4445,79,1168.1700000001456_40690,20,Male,ts-trial-spatial-span,ts-trial,143,518173.9,1,1,1,2815.415,0,SR-SS,3
4446,80,1168.1700000001456_40690,20,Male,ts-trial-spatial-span,ts-trial,145,524792.025,2,2,1,1250.06,0,SR-SS,3
4457,91,1168.1700000001456_40690,20,Male,ts-trial-spatial-span,ts-trial,163,576742.49,1,0,,2587.22,1,DS-SS,4
4458,92,1168.1700000001456_40690,20,Male,ts-trial-spatial-span,ts-trial,165,583265.735,2,2,1,1347.62,0,DS-SS,4
4459,93,1168.1700000001456_40690,20,Male,ts-trial-spatial-span,ts-trial,167,589950.85,2,2,1,1588.52,0,DS-SS,4
4460,94,1168.1700000001456_40690,20,Male,ts-trial-spatial-span,ts-trial,169,596324.9,0,0,1,2072.7,0,DS-SS,4
4461,95,1168.1700000001456_40690,20,Male,ts-trial-spatial-span,ts-trial,171,602625.98,,1,,,0,DS-SS,4
4462,96,1168.1700000001456_40690,20,Male,ts-trial-spatial-span,ts-trial,173,609335.085,0,2,,1908.4,0,DS-SS,4
4463,97,1168.1700000001456_40690,20,Male,ts-trial-spatial-span,ts-trial,175,616332.465,0,1,,1735.27,0,DS-SS,4
4493,127,1168.1700000001456_40690,20,Male,ts-trial-spatial-span,ts-trial,224,763814.45,0,1,,2089.425,1,DS-SS,5
4494,128,1168.1700000001456_40690,20,Male,ts-trial-spatial-span,ts-trial,226,770464.33,0,0,1,1741.26,0,DS-SS,5
4495,129,1168.1700000001456_40690,20,Male,ts-trial-spatial-span,ts-trial,228,777675.99,2,1,,2055.485,0,DS-SS,5
4496,130,1168.1700000001456_40690,20,Male,ts-trial-spatial-span,ts-trial,230,784013.085,0,0,1,1249.425,0,DS-SS,5
4497,131,1168.1700000001456_40690,20,Male,ts-trial-spatial-span,ts-trial,232,791136.08,0,2,,2071.73,0,DS-SS,5
4498,132,1168.1700000001456_40690,20,Male,ts-trial-spatial-span,ts-trial,234,797914.005,0,2,,2030.695,0,DS-SS,5
4499,133,1168.1700000001456_40690,20,Male,ts-trial-spatial-span,ts-trial,236,804237.135,1,1,1,1230.535,0,DS-SS,5
4500,134,1168.1700000001456_40690,20,Male,ts-trial-spatial-span,ts-trial,238,810649,2,2,1,1122.35,0,DS-SS,5
4501,135,1168.1700000001456_40690,20,Male,ts-trial-spatial-span,ts-trial,240,817500.65,1,1,1,1976.09,0,DS-SS,5
4512,146,1168.1700000001456_40690,20,Male,ts-trial-spatial-span,ts-trial,258,878533.68,0,2,,2130.145,1,SR-SS,6
4513,147,1168.1700000001456_40690,20,Male,ts-trial-spatial-span,ts-trial,260,885489.895,1,1,1,2673.93,0,SR-SS,6
4514,148,1168.1700000001456_40690,20,Male,ts-trial-spatial-span,ts-trial,262,892490.07,2,1,,2602.42,0,SR-SS,6
4515,149,1168.1700000001456_40690,20,Male,ts-trial-spatial-span,ts-trial,264,899277.015,0,0,1,1804.485,0,SR-SS,6
4516,150,1168.1700000001456_40690,20,Male,ts-trial-spatial-span,ts-trial,266,905973.11,1,1,1,1867.56,0,SR-SS,6
4517,151,1168.1700000001456_40690,20,Male,ts-trial-spatial-span,ts-trial,268,912900.7,0,0,1,2632.085,0,SR-SS,6
4536,170,1168.1700000001456_40690,20,Male,ts-trial-spatial-span,ts-trial,300,1015583.26,1,1,1,2443.64,1,DS-SS,7
4537,171,1168.1700000001456_40690,20,Male,ts-trial-spatial-span,ts-trial,302,1022632.275,2,2,1,1598.545,0,DS-SS,7
4538,172,1168.1700000001456_40690,20,Male,ts-trial-spatial-span,ts-trial,304,1029757.185,0,0,1,2326.735,0,DS-SS,7
4539,173,1168.1700000001456_40690,20,Male,ts-trial-spatial-span,ts-trial,306,1036479.305,2,0,,2988.42,0,DS-SS,7
4540,174,1168.1700000001456_40690,20,Male,ts-trial-spatial-span,ts-trial,308,1043146.405,2,1,,2548.395,0,DS-SS,7
4541,175,1168.1700000001456_40690,20,Male,ts-trial-spatial-span,ts-trial,310,1049558.28,,1,,,0,DS-SS,7
4542,176,1168.1700000001456_40690,20,Male,ts-trial-spatial-span,ts-trial,312,1055868.435,0,1,,2894.245,0,DS-SS,7
4553,187,1168.1700000001456_40690,20,Male,ts-trial-spatial-span,ts-trial,330,1122236.215,,2,,,1,SR-SS,8
4554,188,1168.1700000001456_40690,20,Male,ts-trial-spatial-span,ts-trial,332,1129038.84,0,0,1,1095.285,0,SR-SS,8
4555,189,1168.1700000001456_40690,20,Male,ts-trial-spatial-span,ts-trial,334,1135758.97,0,0,1,2690.945,0,SR-SS,8
4556,190,1168.1700000001456_40690,20,Male,ts-trial-spatial-span,ts-trial,336,1142681.375,2,2,1,2435.42,0,SR-SS,8
4557,191,1168.1700000001456_40690,20,Male,ts-trial-spatial-span,ts-trial,338,1149709.555,1,1,1,2081.265,0,SR-SS,8
4558,192,1168.1700000001456_40690,20,Male,ts-trial-spatial-span,ts-trial,340,1156603.27,0,0,1,2972.705,0,SR-SS,8
3103,2,1273.4650000929832_33389,22,female,ts-trial-digit-span,ts-trial,5,279052.02,1,1,1,2218.795,1,NONE-DS,1
3104,3,1273.4650000929832_33389,22,female,ts-trial-digit-span,ts-trial,7,284502.81,0,0,1,2358.365,0,NONE-DS,1
3105,4,1273.4650000929832_33389,22,female,ts-trial-digit-span,ts-trial,9,289832.44,2,2,1,1861.82,0,NONE-DS,1
3106,5,1273.4650000929832_33389,22,female,ts-trial-digit-span,ts-trial,11,294699.435,1,1,1,1448.65,0,NONE-DS,1
3107,6,1273.4650000929832_33389,22,female,ts-trial-digit-span,ts-trial,13,300022.595,0,0,1,1444.15,0,NONE-DS,1
3108,7,1273.4650000929832_33389,22,female,ts-trial-digit-span,ts-trial,15,305700.21,1,1,1,1581.59,0,NONE-DS,1
3119,18,1273.4650000929832_33389,22,female,ts-trial-digit-span,ts-trial,33,364828.325,1,1,1,1832.765,1,SS-DS,2
3120,19,1273.4650000929832_33389,22,female,ts-trial-digit-span,ts-trial,35,369701.3,1,2,,1363.82,0,SS-DS,2
3121,20,1273.4650000929832_33389,22,female,ts-trial-digit-span,ts-trial,37,374522.435,2,2,1,988.84,0,SS-DS,2
3122,21,1273.4650000929832_33389,22,female,ts-trial-digit-span,ts-trial,39,379441.715,2,2,1,975.685,0,SS-DS,2
3123,22,1273.4650000929832_33389,22,female,ts-trial-digit-span,ts-trial,41,384793.43,0,2,,1687.805,0,SS-DS,2
3124,23,1273.4650000929832_33389,22,female,ts-trial-digit-span,ts-trial,43,390068.84,2,2,1,977.76,0,SS-DS,2
3125,24,1273.4650000929832_33389,22,female,ts-trial-digit-span,ts-trial,45,394949.325,1,1,1,1052.14,0,SS-DS,2
3137,36,1273.4650000929832_33389,22,female,ts-trial-digit-span,ts-trial,65,461683.745,0,2,,1227.885,1,SR-DS,3
3138,37,1273.4650000929832_33389,22,female,ts-trial-digit-span,ts-trial,67,467245.855,1,2,,2137.27,0,SR-DS,3
3139,38,1273.4650000929832_33389,22,female,ts-trial-digit-span,ts-trial,69,472155.03,0,1,,923.73,0,SR-DS,3
3140,39,1273.4650000929832_33389,22,female,ts-trial-digit-span,ts-trial,71,477363.25,2,2,1,929.675,0,SR-DS,3
3141,40,1273.4650000929832_33389,22,female,ts-trial-digit-span,ts-trial,73,482985.445,0,1,,1581.75,0,SR-DS,3
3142,41,1273.4650000929832_33389,22,female,ts-trial-digit-span,ts-trial,75,487885.075,0,0,1,977.805,0,SR-DS,3
3143,42,1273.4650000929832_33389,22,female,ts-trial-digit-span,ts-trial,77,493105.97,1,1,1,1946.635,0,SR-DS,3
3189,88,1273.4650000929832_33389,22,female,ts-trial-digit-span,ts-trial,157,766794.55,1,1,1,1211.05,1,SS-DS,4
3190,89,1273.4650000929832_33389,22,female,ts-trial-digit-span,ts-trial,159,771595.395,0,0,1,1278.96,0,SS-DS,4
3191,90,1273.4650000929832_33389,22,female,ts-trial-digit-span,ts-trial,161,776958.935,1,1,1,1177.275,0,SS-DS,4
3192,91,1273.4650000929832_33389,22,female,ts-trial-digit-span,ts-trial,163,782660.34,0,2,,1221.92,0,SS-DS,4
3193,92,1273.4650000929832_33389,22,female,ts-trial-digit-span,ts-trial,165,787689.89,1,1,1,1365.83,0,SS-DS,4
3194,93,1273.4650000929832_33389,22,female,ts-trial-digit-span,ts-trial,167,793400.235,2,2,1,1273.485,0,SS-DS,4
3195,94,1273.4650000929832_33389,22,female,ts-trial-digit-span,ts-trial,169,798559.24,0,0,1,1296.2,0,SS-DS,4
3196,95,1273.4650000929832_33389,22,female,ts-trial-digit-span,ts-trial,171,803745.43,0,0,1,1167.84,0,SS-DS,4
3208,107,1273.4650000929832_33389,22,female,ts-trial-digit-span,ts-trial,191,875792.335,2,2,1,1570.62,1,SR-DS,5
3209,108,1273.4650000929832_33389,22,female,ts-trial-digit-span,ts-trial,193,881269.195,0,0,1,1502.435,0,SR-DS,5
3210,109,1273.4650000929832_33389,22,female,ts-trial-digit-span,ts-trial,195,886389.915,0,0,1,1082.265,0,SR-DS,5
3213,112,1273.4650000929832_33389,22,female,ts-trial-digit-span,ts-trial,198,895097.44,0,0,1,957.105,1,SR-DS,6
3214,113,1273.4650000929832_33389,22,female,ts-trial-digit-span,ts-trial,200,900269.225,2,2,1,1879.3,0,SR-DS,6
3215,114,1273.4650000929832_33389,22,female,ts-trial-digit-span,ts-trial,202,905365.34,0,0,1,1067.38,0,SR-DS,6
3216,115,1273.4650000929832_33389,22,female,ts-trial-digit-span,ts-trial,204,910676.305,0,0,1,1273.55,0,SR-DS,6
3233,132,1273.4650000929832_33389,22,female,ts-trial-digit-span,ts-trial,232,1009995.805,2,1,,1391.455,1,SR-DS,7
3234,133,1273.4650000929832_33389,22,female,ts-trial-digit-span,ts-trial,234,1014815.945,0,0,1,1197.59,0,SR-DS,7
3235,134,1273.4650000929832_33389,22,female,ts-trial-digit-span,ts-trial,236,1019838.565,0,0,1,952.27,0,SR-DS,7
3236,135,1273.4650000929832_33389,22,female,ts-trial-digit-span,ts-trial,238,1024630.65,1,1,1,1552.11,0,SR-DS,7
3237,136,1273.4650000929832_33389,22,female,ts-trial-digit-span,ts-trial,240,1029785.795,0,0,1,1457.975,0,SR-DS,7
3238,137,1273.4650000929832_33389,22,female,ts-trial-digit-span,ts-trial,242,1034647.92,0,2,,1692.05,0,SR-DS,7
3239,138,1273.4650000929832_33389,22,female,ts-trial-digit-span,ts-trial,244,1039737.925,0,0,1,1265.77,0,SR-DS,7
3261,160,1273.4650000929832_33389,22,female,ts-trial-digit-span,ts-trial,282,1169763.92,2,2,1,1533.08,1,SS-DS,8
3262,161,1273.4650000929832_33389,22,female,ts-trial-digit-span,ts-trial,284,1175222.55,2,2,1,1052.905,0,SS-DS,8
3263,162,1273.4650000929832_33389,22,female,ts-trial-digit-span,ts-trial,286,1180021.405,2,2,1,1081.4,0,SS-DS,8
3264,163,1273.4650000929832_33389,22,female,ts-trial-digit-span,ts-trial,288,1184832.59,2,2,1,1031.515,0,SS-DS,8
3265,164,1273.4650000929832_33389,22,female,ts-trial-digit-span,ts-trial,290,1189827.21,2,2,1,996.565,0,SS-DS,8
3266,165,1273.4650000929832_33389,22,female,ts-trial-digit-span,ts-trial,292,1195234.475,2,2,1,1059.33,0,SS-DS,8
3267,166,1273.4650000929832_33389,22,female,ts-trial-digit-span,ts-trial,294,1200235.32,1,1,1,1270.06,0,SS-DS,8
3268,167,1273.4650000929832_33389,22,female,ts-trial-digit-span,ts-trial,296,1205627.76,2,2,1,1832.87,0,SS-DS,8
3269,168,1273.4650000929832_33389,22,female,ts-trial-digit-span,ts-trial,298,1210855.87,1,2,,1759.27,0,SS-DS,8
3279,178,1273.4650000929832_33389,22,female,ts-trial-digit-span,ts-trial,314,1267385.52,0,0,1,1476.49,1,SS-DS,9
3280,179,1273.4650000929832_33389,22,female,ts-trial-digit-span,ts-trial,316,1272380.275,0,0,1,1025.03,0,SS-DS,9
3281,180,1273.4650000929832_33389,22,female,ts-trial-digit-span,ts-trial,318,1277842.145,1,1,1,968.69,0,SS-DS,9
3282,181,1273.4650000929832_33389,22,female,ts-trial-digit-span,ts-trial,320,1283075.145,1,1,1,1047.43,0,SS-DS,9
3283,182,1273.4650000929832_33389,22,female,ts-trial-digit-span,ts-trial,322,1288360.195,1,1,1,1425.715,0,SS-DS,9
3284,183,1273.4650000929832_33389,22,female,ts-trial-digit-span,ts-trial,324,1293355.425,2,2,1,1755.25,0,SS-DS,9
3312,211,1273.4650000929832_33389,22,female,ts-trial-digit-span,ts-trial,372,1467510.98,2,2,1,2238.875,1,SR-DS,10
3313,212,1273.4650000929832_33389,22,female,ts-trial-digit-span,ts-trial,374,1473226.42,2,2,1,2069.315,0,SR-DS,10
3314,213,1273.4650000929832_33389,22,female,ts-trial-digit-span,ts-trial,376,1478798.8,2,2,1,1288.285,0,SR-DS,10
3315,214,1273.4650000929832_33389,22,female,ts-trial-digit-span,ts-trial,378,1483905.135,1,1,1,2717.665,0,SR-DS,10
3127,26,1273.4650000929832_33389,22,female,ts-trial-spatial-rotation,ts-trial,47,400132.12,1,1,1,1468.7,1,DS-SR,1
3128,27,1273.4650000929832_33389,22,female,ts-trial-spatial-rotation,ts-trial,49,406562.075,0,1,,1331.765,0,DS-SR,1
3129,28,1273.4650000929832_33389,22,female,ts-trial-spatial-rotation,ts-trial,51,413507.01,0,0,1,1057.145,0,DS-SR,1
3130,29,1273.4650000929832_33389,22,female,ts-trial-spatial-rotation,ts-trial,53,420418.135,0,2,,1411.095,0,DS-SR,1
3131,30,1273.4650000929832_33389,22,female,ts-trial-spatial-rotation,ts-trial,55,427564.91,1,1,1,1315.58,0,DS-SR,1
3132,31,1273.4650000929832_33389,22,female,ts-trial-spatial-rotation,ts-trial,57,434791.465,1,0,,1434.98,0,DS-SR,1
3133,32,1273.4650000929832_33389,22,female,ts-trial-spatial-rotation,ts-trial,59,441391.765,2,0,,2088.485,0,DS-SR,1
3134,33,1273.4650000929832_33389,22,female,ts-trial-spatial-rotation,ts-trial,61,448156.525,1,1,1,1111.275,0,DS-SR,1
3135,34,1273.4650000929832_33389,22,female,ts-trial-spatial-rotation,ts-trial,63,455005.36,0,0,1,1261.335,0,DS-SR,1
3153,52,1273.4650000929832_33389,22,female,ts-trial-spatial-rotation,ts-trial,93,544996.625,0,0,1,1555.51,1,SS-SR,2
3154,53,1273.4650000929832_33389,22,female,ts-trial-spatial-rotation,ts-trial,95,552178.09,0,0,1,1241.4,0,SS-SR,2
3155,54,1273.4650000929832_33389,22,female,ts-trial-spatial-rotation,ts-trial,97,558589.685,1,1,1,1500.095,0,SS-SR,2
3156,55,1273.4650000929832_33389,22,female,ts-trial-spatial-rotation,ts-trial,99,565575.62,0,0,1,969.655,0,SS-SR,2
3157,56,1273.4650000929832_33389,22,female,ts-trial-spatial-rotation,ts-trial,101,572198.66,0,1,,1123.49,0,SS-SR,2
3158,57,1273.4650000929832_33389,22,female,ts-trial-spatial-rotation,ts-trial,103,579205.14,1,1,1,945.25,0,SS-SR,2
3159,58,1273.4650000929832_33389,22,female,ts-trial-spatial-rotation,ts-trial,105,586474.155,1,0,,903.255,0,SS-SR,2
3171,70,1273.4650000929832_33389,22,female,ts-trial-spatial-rotation,ts-trial,125,653545.24,2,1,,1375.26,1,SS-SR,3
3172,71,1273.4650000929832_33389,22,female,ts-trial-spatial-rotation,ts-trial,127,659878.885,0,0,1,1356.09,0,SS-SR,3
3173,72,1273.4650000929832_33389,22,female,ts-trial-spatial-rotation,ts-trial,129,666306.07,0,0,1,826.35,0,SS-SR,3
3174,73,1273.4650000929832_33389,22,female,ts-trial-spatial-rotation,ts-trial,131,673184.74,0,0,1,750.87,0,SS-SR,3
3175,74,1273.4650000929832_33389,22,female,ts-trial-spatial-rotation,ts-trial,133,679619.09,0,0,1,657.105,0,SS-SR,3
3176,75,1273.4650000929832_33389,22,female,ts-trial-spatial-rotation,ts-trial,135,686478.685,2,2,1,1193.395,0,SS-SR,3
3177,76,1273.4650000929832_33389,22,female,ts-trial-spatial-rotation,ts-trial,137,693671.445,2,2,1,847.795,0,SS-SR,3
3178,77,1273.4650000929832_33389,22,female,ts-trial-spatial-rotation,ts-trial,139,700286.075,1,1,1,1286.585,0,SS-SR,3
3179,78,1273.4650000929832_33389,22,female,ts-trial-spatial-rotation,ts-trial,141,706715.35,2,1,,1470.455,0,SS-SR,3
3198,97,1273.4650000929832_33389,22,female,ts-trial-spatial-rotation,ts-trial,173,812415.845,0,2,,1442.775,1,DS-SR,4
3199,98,1273.4650000929832_33389,22,female,ts-trial-spatial-rotation,ts-trial,175,819300.18,0,0,1,1649.995,0,DS-SR,4
3200,99,1273.4650000929832_33389,22,female,ts-trial-spatial-rotation,ts-trial,177,825719.425,0,0,1,1049.52,0,DS-SR,4
3201,100,1273.4650000929832_33389,22,female,ts-trial-spatial-rotation,ts-trial,179,832908.15,2,2,1,1267.4,0,DS-SR,4
3202,101,1273.4650000929832_33389,22,female,ts-trial-spatial-rotation,ts-trial,181,839370.14,2,2,1,1809.605,0,DS-SR,4
3203,102,1273.4650000929832_33389,22,female,ts-trial-spatial-rotation,ts-trial,183,845712.08,1,0,,1446.94,0,DS-SR,4
3204,103,1273.4650000929832_33389,22,female,ts-trial-spatial-rotation,ts-trial,185,852372.925,0,0,1,1134.33,0,DS-SR,4
3205,104,1273.4650000929832_33389,22,female,ts-trial-spatial-rotation,ts-trial,187,859011.035,0,0,1,971.22,0,DS-SR,4
3206,105,1273.4650000929832_33389,22,female,ts-trial-spatial-rotation,ts-trial,189,865612.97,0,0,1,1065.495,0,DS-SR,4
3226,125,1273.4650000929832_33389,22,female,ts-trial-spatial-rotation,ts-trial,220,970523.04,1,1,1,1346.84,1,SS-SR,5
3227,126,1273.4650000929832_33389,22,female,ts-trial-spatial-rotation,ts-trial,222,977387.965,2,2,1,874.28,0,SS-SR,5
3228,127,1273.4650000929832_33389,22,female,ts-trial-spatial-rotation,ts-trial,224,983946.59,2,2,1,980.68,0,SS-SR,5
3229,128,1273.4650000929832_33389,22,female,ts-trial-spatial-rotation,ts-trial,226,990449.98,0,2,,2094.38,0,SS-SR,5
3230,129,1273.4650000929832_33389,22,female,ts-trial-spatial-rotation,ts-trial,228,996847.445,1,1,1,1067.17,0,SS-SR,5
3231,130,1273.4650000929832_33389,22,female,ts-trial-spatial-rotation,ts-trial,230,1003318,0,0,1,1772.15,0,SS-SR,5
3241,140,1273.4650000929832_33389,22,female,ts-trial-spatial-rotation,ts-trial,246,1044912.745,2,2,1,1120.555,1,DS-SR,6
3242,141,1273.4650000929832_33389,22,female,ts-trial-spatial-rotation,ts-trial,248,1052117.675,1,2,,941.095,0,DS-SR,6
3243,142,1273.4650000929832_33389,22,female,ts-trial-spatial-rotation,ts-trial,250,1058962.805,0,0,1,1299.845,0,DS-SR,6
3244,143,1273.4650000929832_33389,22,female,ts-trial-spatial-rotation,ts-trial,252,1065263.655,2,2,1,1463.235,0,DS-SR,6
3245,144,1273.4650000929832_33389,22,female,ts-trial-spatial-rotation,ts-trial,254,1072506.925,1,1,1,1242.21,0,DS-SR,6
3246,145,1273.4650000929832_33389,22,female,ts-trial-spatial-rotation,ts-trial,256,1078835.62,2,1,,1116.825,0,DS-SR,6
3247,146,1273.4650000929832_33389,22,female,ts-trial-spatial-rotation,ts-trial,258,1085613.315,2,2,1,959.785,0,DS-SR,6
3248,147,1273.4650000929832_33389,22,female,ts-trial-spatial-rotation,ts-trial,260,1092096.185,2,2,1,1004.89,0,DS-SR,6
3249,148,1273.4650000929832_33389,22,female,ts-trial-spatial-rotation,ts-trial,262,1098797.34,1,1,1,1024.355,0,DS-SR,6
3286,185,1273.4650000929832_33389,22,female,ts-trial-spatial-rotation,ts-trial,326,1302033.12,0,0,1,1340.705,1,DS-SR,7
3287,186,1273.4650000929832_33389,22,female,ts-trial-spatial-rotation,ts-trial,328,1308495.86,0,2,,1138.085,0,DS-SR,7
3288,187,1273.4650000929832_33389,22,female,ts-trial-spatial-rotation,ts-trial,330,1315744.25,0,0,1,1158.34,0,DS-SR,7
3289,188,1273.4650000929832_33389,22,female,ts-trial-spatial-rotation,ts-trial,332,1322628.695,1,1,1,1129.92,0,DS-SR,7
3290,189,1273.4650000929832_33389,22,female,ts-trial-spatial-rotation,ts-trial,334,1329668.975,2,2,1,1142.245,0,DS-SR,7
3291,190,1273.4650000929832_33389,22,female,ts-trial-spatial-rotation,ts-trial,336,1336251.435,2,2,1,1009.08,0,DS-SR,7
3292,191,1273.4650000929832_33389,22,female,ts-trial-spatial-rotation,ts-trial,338,1342750.545,2,0,,1393.68,0,DS-SR,7
3293,192,1273.4650000929832_33389,22,female,ts-trial-spatial-rotation,ts-trial,340,1349328.64,2,2,1,1458.995,0,DS-SR,7
3294,193,1273.4650000929832_33389,22,female,ts-trial-spatial-rotation,ts-trial,342,1355844.36,0,0,1,965.62,0,DS-SR,7
3303,202,1273.4650000929832_33389,22,female,ts-trial-spatial-rotation,ts-trial,356,1409779.235,2,2,1,1492.575,1,SS-SR,8
3304,203,1273.4650000929832_33389,22,female,ts-trial-spatial-rotation,ts-trial,358,1416224.77,2,2,1,933.44,0,SS-SR,8
3305,204,1273.4650000929832_33389,22,female,ts-trial-spatial-rotation,ts-trial,360,1423148.255,1,1,1,2315.485,0,SS-SR,8
3306,205,1273.4650000929832_33389,22,female,ts-trial-spatial-rotation,ts-trial,362,1430293.31,0,0,1,1798.04,0,SS-SR,8
3307,206,1273.4650000929832_33389,22,female,ts-trial-spatial-rotation,ts-trial,364,1437094.705,1,1,1,1909.85,0,SS-SR,8
3308,207,1273.4650000929832_33389,22,female,ts-trial-spatial-rotation,ts-trial,366,1444165.27,1,1,1,1355.15,0,SS-SR,8
3309,208,1273.4650000929832_33389,22,female,ts-trial-spatial-rotation,ts-trial,368,1450508.885,0,0,1,984.84,0,SS-SR,8
3310,209,1273.4650000929832_33389,22,female,ts-trial-spatial-rotation,ts-trial,370,1457330.42,0,0,1,805.58,0,SS-SR,8
3110,9,1273.4650000929832_33389,22,female,ts-trial-spatial-span,ts-trial,17,310885.815,0,0,1,1455.49,1,DS-SS,1
3111,10,1273.4650000929832_33389,22,female,ts-trial-spatial-span,ts-trial,19,317417.525,0,0,1,2401.605,0,DS-SS,1
3112,11,1273.4650000929832_33389,22,female,ts-trial-spatial-span,ts-trial,21,324080.47,2,2,1,2210.66,0,DS-SS,1
3113,12,1273.4650000929832_33389,22,female,ts-trial-spatial-span,ts-trial,23,330782.495,,2,,,0,DS-SS,1
3114,13,1273.4650000929832_33389,22,female,ts-trial-spatial-span,ts-trial,25,337846.705,0,0,1,1252.87,0,DS-SS,1
3115,14,1273.4650000929832_33389,22,female,ts-trial-spatial-span,ts-trial,27,344657.45,1,0,,1601.29,0,DS-SS,1
3116,15,1273.4650000929832_33389,22,female,ts-trial-spatial-span,ts-trial,29,351299.2,1,2,,1021.785,0,DS-SS,1
3117,16,1273.4650000929832_33389,22,female,ts-trial-spatial-span,ts-trial,31,358141.315,0,0,1,1120.09,0,DS-SS,1
3145,44,1273.4650000929832_33389,22,female,ts-trial-spatial-span,ts-trial,79,498289.53,0,0,1,1906.31,1,DS-SS,2
3146,45,1273.4650000929832_33389,22,female,ts-trial-spatial-span,ts-trial,81,504664.975,0,2,,1431.325,0,DS-SS,2
3147,46,1273.4650000929832_33389,22,female,ts-trial-spatial-span,ts-trial,83,511515.09,0,2,,1126.5,0,DS-SS,2
3148,47,1273.4650000929832_33389,22,female,ts-trial-spatial-span,ts-trial,85,518326.73,0,0,1,873.605,0,DS-SS,2
3149,48,1273.4650000929832_33389,22,female,ts-trial-spatial-span,ts-trial,87,525020.425,1,1,1,1121.595,0,DS-SS,2
3150,49,1273.4650000929832_33389,22,female,ts-trial-spatial-span,ts-trial,89,532039.495,0,0,1,852.55,0,DS-SS,2
3151,50,1273.4650000929832_33389,22,female,ts-trial-spatial-span,ts-trial,91,538319.9,0,1,,1237.82,0,DS-SS,2
3161,60,1273.4650000929832_33389,22,female,ts-trial-spatial-span,ts-trial,107,593151.085,1,1,1,1183.715,1,SR-SS,3
3162,61,1273.4650000929832_33389,22,female,ts-trial-spatial-span,ts-trial,109,599796.18,2,2,1,1106.505,0,SR-SS,3
3163,62,1273.4650000929832_33389,22,female,ts-trial-spatial-span,ts-trial,111,606130.375,0,0,1,1202.625,0,SR-SS,3
3164,63,1273.4650000929832_33389,22,female,ts-trial-spatial-span,ts-trial,113,613002.96,1,0,,1573.56,0,SR-SS,3
3165,64,1273.4650000929832_33389,22,female,ts-trial-spatial-span,ts-trial,115,619980.72,0,0,1,1332.92,0,SR-SS,3
3166,65,1273.4650000929832_33389,22,female,ts-trial-spatial-span,ts-trial,117,626653.025,0,0,1,1677.38,0,SR-SS,3
3167,66,1273.4650000929832_33389,22,female,ts-trial-spatial-span,ts-trial,119,633832.71,2,2,1,868.17,0,SR-SS,3
3168,67,1273.4650000929832_33389,22,female,ts-trial-spatial-span,ts-trial,121,640335,0,0,1,1311.335,0,SR-SS,3
3169,68,1273.4650000929832_33389,22,female,ts-trial-spatial-span,ts-trial,123,646871.12,2,1,,1838.525,0,SR-SS,3
3181,80,1273.4650000929832_33389,22,female,ts-trial-spatial-span,ts-trial,143,716896.125,0,2,,1181.6,1,SR-SS,4
3182,81,1273.4650000929832_33389,22,female,ts-trial-spatial-span,ts-trial,145,723905.545,1,1,1,1569.89,0,SR-SS,4
3183,82,1273.4650000929832_33389,22,female,ts-trial-spatial-span,ts-trial,147,730641.675,0,0,1,1752.935,0,SR-SS,4
3184,83,1273.4650000929832_33389,22,female,ts-trial-spatial-span,ts-trial,149,737206.095,2,2,1,1073.18,0,SR-SS,4
3185,84,1273.4650000929832_33389,22,female,ts-trial-spatial-span,ts-trial,151,743634.95,2,2,1,1196.69,0,SR-SS,4
3186,85,1273.4650000929832_33389,22,female,ts-trial-spatial-span,ts-trial,153,750272.65,0,1,,2096.775,0,SR-SS,4
3187,86,1273.4650000929832_33389,22,female,ts-trial-spatial-span,ts-trial,155,756611.995,2,2,1,1695.82,0,SR-SS,4
3218,117,1273.4650000929832_33389,22,female,ts-trial-spatial-span,ts-trial,206,919352.575,0,0,1,1373.54,1,DS-SS,5
3219,118,1273.4650000929832_33389,22,female,ts-trial-spatial-span,ts-trial,208,926377.485,1,1,1,1120.74,0,DS-SS,5
3220,119,1273.4650000929832_33389,22,female,ts-trial-spatial-span,ts-trial,210,933400.065,0,0,1,1233.115,0,DS-SS,5
3221,120,1273.4650000929832_33389,22,female,ts-trial-spatial-span,ts-trial,212,939764.47,0,1,,1084.1,0,DS-SS,5
3222,121,1273.4650000929832_33389,22,female,ts-trial-spatial-span,ts-trial,214,946341.825,2,2,1,1777.75,0,DS-SS,5
3223,122,1273.4650000929832_33389,22,female,ts-trial-spatial-span,ts-trial,216,953450.19,1,1,1,1036.725,0,DS-SS,5
3224,123,1273.4650000929832_33389,22,female,ts-trial-spatial-span,ts-trial,218,960341.435,0,1,,1225.37,0,DS-SS,5
3251,150,1273.4650000929832_33389,22,female,ts-trial-spatial-span,ts-trial,264,1105473.7,2,2,1,1105.73,1,SR-SS,6
3252,151,1273.4650000929832_33389,22,female,ts-trial-spatial-span,ts-trial,266,1112197.575,1,1,1,1369.73,0,SR-SS,6
3253,152,1273.4650000929832_33389,22,female,ts-trial-spatial-span,ts-trial,268,1119232.17,1,1,1,969.715,0,SR-SS,6
3254,153,1273.4650000929832_33389,22,female,ts-trial-spatial-span,ts-trial,270,1126389.93,0,0,1,1225.985,0,SR-SS,6
3255,154,1273.4650000929832_33389,22,female,ts-trial-spatial-span,ts-trial,272,1132778.285,2,2,1,1306.945,0,SR-SS,6
3256,155,1273.4650000929832_33389,22,female,ts-trial-spatial-span,ts-trial,274,1139352.42,0,0,1,1439.4,0,SR-SS,6
3257,156,1273.4650000929832_33389,22,female,ts-trial-spatial-span,ts-trial,276,1145663.175,1,1,1,1296.53,0,SR-SS,6
3258,157,1273.4650000929832_33389,22,female,ts-trial-spatial-span,ts-trial,278,1152762.95,0,0,1,1773.08,0,SR-SS,6
3259,158,1273.4650000929832_33389,22,female,ts-trial-spatial-span,ts-trial,280,1159582.125,1,1,1,1112.285,0,SR-SS,6
3271,170,1273.4650000929832_33389,22,female,ts-trial-spatial-span,ts-trial,300,1219538.84,1,1,1,1033.265,1,DS-SS,7
3272,171,1273.4650000929832_33389,22,female,ts-trial-spatial-span,ts-trial,302,1226126.955,2,2,1,2009.93,0,DS-SS,7
3273,172,1273.4650000929832_33389,22,female,ts-trial-spatial-span,ts-trial,304,1233277.55,2,0,,915.84,0,DS-SS,7
3274,173,1273.4650000929832_33389,22,female,ts-trial-spatial-span,ts-trial,306,1240267.32,1,1,1,1391.765,0,DS-SS,7
3275,174,1273.4650000929832_33389,22,female,ts-trial-spatial-span,ts-trial,308,1247192.755,2,2,1,1283.53,0,DS-SS,7
3276,175,1273.4650000929832_33389,22,female,ts-trial-spatial-span,ts-trial,310,1254167.31,1,1,1,1049.74,0,DS-SS,7
3277,176,1273.4650000929832_33389,22,female,ts-trial-spatial-span,ts-trial,312,1260698.915,0,1,,1610.265,0,DS-SS,7
3296,195,1273.4650000929832_33389,22,female,ts-trial-spatial-span,ts-trial,344,1366029.92,1,1,1,1110.865,1,SR-SS,8
3297,196,1273.4650000929832_33389,22,female,ts-trial-spatial-span,ts-trial,346,1372848.585,0,0,1,1054.445,0,SR-SS,8
3298,197,1273.4650000929832_33389,22,female,ts-trial-spatial-span,ts-trial,348,1379642.04,0,0,1,1404.175,0,SR-SS,8
3299,198,1273.4650000929832_33389,22,female,ts-trial-spatial-span,ts-trial,350,1386007.755,2,2,1,950.63,0,SR-SS,8
3300,199,1273.4650000929832_33389,22,female,ts-trial-spatial-span,ts-trial,352,1393062.845,0,0,1,1265.715,0,SR-SS,8
3301,200,1273.4650000929832_33389,22,female,ts-trial-spatial-span,ts-trial,354,1399573.625,0,1,,689.755,0,SR-SS,8
558,2,1718.75_45854,19,Female,ts-trial-digit-span,ts-trial,5,51823.17,1,1,1,2229.07,1,NONE-DS,1
561,3,1718.75_45854,19,Female,ts-trial-digit-span,ts-trial,7,57584.31,2,2,1,2278,0,NONE-DS,1
563,4,1718.75_45854,19,Female,ts-trial-digit-span,ts-trial,9,62823.38,2,2,1,2285.69,0,NONE-DS,1
566,5,1718.75_45854,19,Female,ts-trial-digit-span,ts-trial,11,67767.465,,1,,,0,NONE-DS,1
569,6,1718.75_45854,19,Female,ts-trial-digit-span,ts-trial,13,73119.21,1,1,1,1134.66,0,NONE-DS,1
572,7,1718.75_45854,19,Female,ts-trial-digit-span,ts-trial,15,78547.525,1,1,1,1260.53,0,NONE-DS,1
575,8,1718.75_45854,19,Female,ts-trial-digit-span,ts-trial,17,83721.22,1,1,1,1209.95,0,NONE-DS,1
578,9,1718.75_45854,19,Female,ts-trial-digit-span,ts-trial,19,89083.64,0,0,1,1977.78,0,NONE-DS,1
613,20,1718.75_45854,19,Female,ts-trial-digit-span,ts-trial,37,154942.58,0,1,,1315.805,1,SS-DS,2
616,21,1718.75_45854,19,Female,ts-trial-digit-span,ts-trial,39,160700.975,2,0,,1570.76,0,SS-DS,2
619,22,1718.75_45854,19,Female,ts-trial-digit-span,ts-trial,41,166306.95,2,2,1,1979.89,0,SS-DS,2
622,23,1718.75_45854,19,Female,ts-trial-digit-span,ts-trial,43,171752.33,1,1,1,2344.72,0,SS-DS,2
625,24,1718.75_45854,19,Female,ts-trial-digit-span,ts-trial,45,177027.185,2,2,1,1808.675,0,SS-DS,2
628,25,1718.75_45854,19,Female,ts-trial-digit-span,ts-trial,47,182245.045,2,2,1,1668.005,0,SS-DS,2
631,26,1718.75_45854,19,Female,ts-trial-digit-span,ts-trial,49,187888.46,0,0,1,1238.87,0,SS-DS,2
634,27,1718.75_45854,19,Female,ts-trial-digit-span,ts-trial,51,192997.08,1,1,1,2093.445,0,SS-DS,2
687,48,1718.75_45854,19,Female,ts-trial-digit-span,ts-trial,87,317430.35,0,2,,1662.395,1,SS-DS,3
689,49,1718.75_45854,19,Female,ts-trial-digit-span,ts-trial,89,322250.905,2,1,,1805.045,0,SS-DS,3
691,50,1718.75_45854,19,Female,ts-trial-digit-span,ts-trial,91,327402.48,2,2,1,931.45,0,SS-DS,3
693,51,1718.75_45854,19,Female,ts-trial-digit-span,ts-trial,93,332335.995,1,1,1,1950.205,0,SS-DS,3
694,52,1718.75_45854,19,Female,ts-trial-digit-span,ts-trial,95,337581.615,2,2,1,1569.85,0,SS-DS,3
696,53,1718.75_45854,19,Female,ts-trial-digit-span,ts-trial,97,342645.52,2,2,1,2158.925,0,SS-DS,3
698,54,1718.75_45854,19,Female,ts-trial-digit-span,ts-trial,99,348088.775,2,2,1,1899.85,0,SS-DS,3
700,55,1718.75_45854,19,Female,ts-trial-digit-span,ts-trial,101,353453.745,2,0,,1794.48,0,SS-DS,3
702,56,1718.75_45854,19,Female,ts-trial-digit-span,ts-trial,103,358272.7,1,1,1,2710.51,0,SS-DS,3
741,91,1718.75_45854,19,Female,ts-trial-digit-span,ts-trial,163,567922.085,1,1,1,1017.875,1,SR-DS,4
742,92,1718.75_45854,19,Female,ts-trial-digit-span,ts-trial,165,573369.41,1,1,1,2375.925,0,SR-DS,4
743,93,1718.75_45854,19,Female,ts-trial-digit-span,ts-trial,167,578588.7,0,0,1,1470.65,0,SR-DS,4
744,94,1718.75_45854,19,Female,ts-trial-digit-span,ts-trial,169,584120.015,1,1,1,1233.95,0,SR-DS,4
745,95,1718.75_45854,19,Female,ts-trial-digit-span,ts-trial,171,589029.42,,2,,,0,SR-DS,4
746,96,1718.75_45854,19,Female,ts-trial-digit-span,ts-trial,173,594661.89,1,1,1,1113.83,0,SR-DS,4
767,117,1718.75_45854,19,Female,ts-trial-digit-span,ts-trial,206,703472.06,1,1,1,1224.905,1,SR-DS,5
768,118,1718.75_45854,19,Female,ts-trial-digit-span,ts-trial,208,708704.535,1,0,,1965.515,0,SR-DS,5
769,119,1718.75_45854,19,Female,ts-trial-digit-span,ts-trial,210,713999.705,0,0,1,2279.43,0,SR-DS,5
770,120,1718.75_45854,19,Female,ts-trial-digit-span,ts-trial,212,719371.965,2,2,1,1602.985,0,SR-DS,5
771,121,1718.75_45854,19,Female,ts-trial-digit-span,ts-trial,214,724955.815,0,0,1,1432.7,0,SR-DS,5
772,122,1718.75_45854,19,Female,ts-trial-digit-span,ts-trial,216,729954.64,0,1,,1419.11,0,SR-DS,5
791,141,1718.75_45854,19,Female,ts-trial-digit-span,ts-trial,248,844069.46,0,1,,1571.97,1,SS-DS,6
792,142,1718.75_45854,19,Female,ts-trial-digit-span,ts-trial,250,849766.505,0,0,1,1310.18,0,SS-DS,6
793,143,1718.75_45854,19,Female,ts-trial-digit-span,ts-trial,252,854985.93,0,2,,2030.035,0,SS-DS,6
794,144,1718.75_45854,19,Female,ts-trial-digit-span,ts-trial,254,859853.79,2,2,1,1642.925,0,SS-DS,6
795,145,1718.75_45854,19,Female,ts-trial-digit-span,ts-trial,256,864720.475,0,0,1,1363.775,0,SS-DS,6
796,146,1718.75_45854,19,Female,ts-trial-digit-span,ts-trial,258,870087.215,0,2,,1188.62,0,SS-DS,6
797,147,1718.75_45854,19,Female,ts-trial-digit-span,ts-trial,260,874904.71,2,2,1,1518.51,0,SS-DS,6
808,158,1718.75_45854,19,Female,ts-trial-digit-span,ts-trial,278,937965.425,0,0,1,1420.835,1,SR-DS,7
809,159,1718.75_45854,19,Female,ts-trial-digit-span,ts-trial,280,943304.95,2,2,1,1651.68,0,SR-DS,7
810,160,1718.75_45854,19,Female,ts-trial-digit-span,ts-trial,282,949054.825,1,1,1,1272.85,0,SR-DS,7
811,161,1718.75_45854,19,Female,ts-trial-digit-span,ts-trial,284,954171.83,2,1,,1797.27,0,SR-DS,7
812,162,1718.75_45854,19,Female,ts-trial-digit-span,ts-trial,286,959594.165,0,0,1,1189.675,0,SR-DS,7
813,163,1718.75_45854,19,Female,ts-trial-digit-span,ts-trial,288,965051.37,2,2,1,1332.145,0,SR-DS,7
814,164,1718.75_45854,19,Female,ts-trial-digit-span,ts-trial,290,970259.49,2,0,,1660.12,0,SR-DS,7
815,165,1718.75_45854,19,Female,ts-trial-digit-span,ts-trial,292,975482.52,0,2,,1794.635,0,SR-DS,7
827,177,1718.75_45854,19,Female,ts-trial-digit-span,ts-trial,312,1045418.875,2,2,1,1166.81,1,SR-DS,8
828,178,1718.75_45854,19,Female,ts-trial-digit-span,ts-trial,314,1051057.815,0,0,1,2241.655,0,SR-DS,8
829,179,1718.75_45854,19,Female,ts-trial-digit-span,ts-trial,316,1056041.97,2,2,1,1857.69,0,SR-DS,8
830,180,1718.75_45854,19,Female,ts-trial-digit-span,ts-trial,318,1061592.36,2,2,1,1237.86,0,SR-DS,8
831,181,1718.75_45854,19,Female,ts-trial-digit-span,ts-trial,320,1066543.725,0,0,1,1801.855,0,SR-DS,8
832,182,1718.75_45854,19,Female,ts-trial-digit-span,ts-trial,322,1071544.99,2,2,1,1506.39,0,SR-DS,8
858,208,1718.75_45854,19,Female,ts-trial-digit-span,ts-trial,366,1221279.065,2,2,1,2050.035,1,SS-DS,9
859,209,1718.75_45854,19,Female,ts-trial-digit-span,ts-trial,368,1226438.86,2,2,1,1233.02,0,SS-DS,9
860,210,1718.75_45854,19,Female,ts-trial-digit-span,ts-trial,370,1231327.79,0,1,,1849.035,0,SS-DS,9
639,29,1718.75_45854,19,Female,ts-trial-spatial-rotation,ts-trial,53,201667.005,0,0,1,985.61,1,DS-SR,1
643,30,1718.75_45854,19,Female,ts-trial-spatial-rotation,ts-trial,55,208369.28,0,0,1,1097.255,0,DS-SR,1
647,31,1718.75_45854,19,Female,ts-trial-spatial-rotation,ts-trial,57,214765.465,1,1,1,1319.185,0,DS-SR,1
650,32,1718.75_45854,19,Female,ts-trial-spatial-rotation,ts-trial,59,221157.205,0,1,,1176.525,0,DS-SR,1
653,33,1718.75_45854,19,Female,ts-trial-spatial-rotation,ts-trial,61,228347.25,0,2,,1825.235,0,DS-SR,1
657,34,1718.75_45854,19,Female,ts-trial-spatial-rotation,ts-trial,63,234938.62,0,0,1,1496.735,0,DS-SR,1
660,35,1718.75_45854,19,Female,ts-trial-spatial-rotation,ts-trial,65,241541.845,0,0,1,1874.545,0,DS-SR,1
663,36,1718.75_45854,19,Female,ts-trial-spatial-rotation,ts-trial,67,248760.855,2,2,1,2842.315,0,DS-SR,1
666,37,1718.75_45854,19,Female,ts-trial-spatial-rotation,ts-trial,69,255966.865,2,0,,885.845,0,DS-SR,1
716,66,1718.75_45854,19,Female,ts-trial-spatial-rotation,ts-trial,119,414038.95,2,1,,1725.06,1,SS-SR,2
717,67,1718.75_45854,19,Female,ts-trial-spatial-rotation,ts-trial,121,421110.42,1,1,1,1112.87,0,SS-SR,2
718,68,1718.75_45854,19,Female,ts-trial-spatial-rotation,ts-trial,123,428038.385,1,1,1,1519.665,0,SS-SR,2
719,69,1718.75_45854,19,Female,ts-trial-spatial-rotation,ts-trial,125,434527.05,1,1,1,1457.25,0,SS-SR,2
720,70,1718.75_45854,19,Female,ts-trial-spatial-rotation,ts-trial,127,440941.645,1,1,1,1600.5,0,SS-SR,2
721,71,1718.75_45854,19,Female,ts-trial-spatial-rotation,ts-trial,129,448105.375,2,2,1,1914.295,0,SS-SR,2
722,72,1718.75_45854,19,Female,ts-trial-spatial-rotation,ts-trial,131,454557.225,2,2,1,1912.44,0,SS-SR,2
723,73,1718.75_45854,19,Female,ts-trial-spatial-rotation,ts-trial,133,461188.565,2,2,1,1232.745,0,SS-SR,2
724,74,1718.75_45854,19,Female,ts-trial-spatial-rotation,ts-trial,135,467686.405,2,2,1,1428.92,0,SS-SR,2
733,83,1718.75_45854,19,Female,ts-trial-spatial-rotation,ts-trial,149,520208.5,0,0,1,2075.04,1,SS-SR,3
734,84,1718.75_45854,19,Female,ts-trial-spatial-rotation,ts-trial,151,526594.45,2,2,1,2241.07,0,SS-SR,3
735,85,1718.75_45854,19,Female,ts-trial-spatial-rotation,ts-trial,153,533400.49,0,0,1,1617.545,0,SS-SR,3
736,86,1718.75_45854,19,Female,ts-trial-spatial-rotation,ts-trial,155,540342.98,0,0,1,1795.5,0,SS-SR,3
737,87,1718.75_45854,19,Female,ts-trial-spatial-rotation,ts-trial,157,547238.425,0,0,1,1176.645,0,SS-SR,3
738,88,1718.75_45854,19,Female,ts-trial-spatial-rotation,ts-trial,159,553989.785,2,2,1,2136.08,0,SS-SR,3
739,89,1718.75_45854,19,Female,ts-trial-spatial-rotation,ts-trial,161,561253.195,2,2,1,1010.28,0,SS-SR,3
758,108,1718.75_45854,19,Female,ts-trial-spatial-rotation,ts-trial,193,663532.69,1,1,1,1159.655,1,SS-SR,4
759,109,1718.75_45854,19,Female,ts-trial-spatial-rotation,ts-trial,195,670183.165,2,2,1,1051.455,0,SS-SR,4
760,110,1718.75_45854,19,Female,ts-trial-spatial-rotation,ts-trial,197,676465.685,1,1,1,1605.36,0,SS-SR,4
763,113,1718.75_45854,19,Female,ts-trial-spatial-rotation,ts-trial,200,683147.75,2,1,,974.415,0,SS-SR,4
764,114,1718.75_45854,19,Female,ts-trial-spatial-rotation,ts-trial,202,689916.505,1,1,1,1352.79,0,SS-SR,4
765,115,1718.75_45854,19,Female,ts-trial-spatial-rotation,ts-trial,204,696802.9,1,1,1,1104.29,0,SS-SR,4
774,124,1718.75_45854,19,Female,ts-trial-spatial-rotation,ts-trial,218,738622.495,0,0,1,1451.465,1,DS-SR,5
775,125,1718.75_45854,19,Female,ts-trial-spatial-rotation,ts-trial,220,745585.155,0,0,1,1261.66,0,DS-SR,5
776,126,1718.75_45854,19,Female,ts-trial-spatial-rotation,ts-trial,222,751888.51,2,1,,1925.57,0,DS-SR,5
777,127,1718.75_45854,19,Female,ts-trial-spatial-rotation,ts-trial,224,758412.71,0,0,1,1923.7,0,DS-SR,5
778,128,1718.75_45854,19,Female,ts-trial-spatial-rotation,ts-trial,226,765522.4,0,2,,1369.71,0,DS-SR,5
779,129,1718.75_45854,19,Female,ts-trial-spatial-rotation,ts-trial,228,772281.13,2,2,1,1683.31,0,DS-SR,5
799,149,1718.75_45854,19,Female,ts-trial-spatial-rotation,ts-trial,262,880074.82,1,0,,1310.75,1,DS-SR,6
800,150,1718.75_45854,19,Female,ts-trial-spatial-rotation,ts-trial,264,886643.2,2,2,1,1309.03,0,DS-SR,6
801,151,1718.75_45854,19,Female,ts-trial-spatial-rotation,ts-trial,266,893539.56,2,2,1,1113.025,0,DS-SR,6
802,152,1718.75_45854,19,Female,ts-trial-spatial-rotation,ts-trial,268,900777.285,0,0,1,1412.745,0,DS-SR,6
803,153,1718.75_45854,19,Female,ts-trial-spatial-rotation,ts-trial,270,907274.28,2,2,1,1391.645,0,DS-SR,6
804,154,1718.75_45854,19,Female,ts-trial-spatial-rotation,ts-trial,272,913684.105,1,1,1,1911.565,0,DS-SR,6
805,155,1718.75_45854,19,Female,ts-trial-spatial-rotation,ts-trial,274,920797.62,0,2,,2483.495,0,DS-SR,6
806,156,1718.75_45854,19,Female,ts-trial-spatial-rotation,ts-trial,276,927795.005,2,2,1,1053.61,0,DS-SR,6
817,167,1718.75_45854,19,Female,ts-trial-spatial-rotation,ts-trial,294,980654.215,0,0,1,1280.48,1,DS-SR,7
818,168,1718.75_45854,19,Female,ts-trial-spatial-rotation,ts-trial,296,986955,1,1,1,1828.315,0,DS-SR,7
819,169,1718.75_45854,19,Female,ts-trial-spatial-rotation,ts-trial,298,993289.77,1,0,,1757.36,0,DS-SR,7
820,170,1718.75_45854,19,Female,ts-trial-spatial-rotation,ts-trial,300,1000518.915,1,1,1,1171.24,0,DS-SR,7
821,171,1718.75_45854,19,Female,ts-trial-spatial-rotation,ts-trial,302,1007641.72,2,2,1,1315.865,0,DS-SR,7
822,172,1718.75_45854,19,Female,ts-trial-spatial-rotation,ts-trial,304,1014638.77,2,2,1,1197.59,0,DS-SR,7
823,173,1718.75_45854,19,Female,ts-trial-spatial-rotation,ts-trial,306,1021245.585,1,1,1,1496.38,0,DS-SR,7
824,174,1718.75_45854,19,Female,ts-trial-spatial-rotation,ts-trial,308,1028244.71,2,2,1,1196.48,0,DS-SR,7
825,175,1718.75_45854,19,Female,ts-trial-spatial-rotation,ts-trial,310,1035250.53,0,0,1,1624.555,0,DS-SR,7
841,191,1718.75_45854,19,Female,ts-trial-spatial-rotation,ts-trial,336,1117271.43,0,2,,2585.88,1,SS-SR,8
842,192,1718.75_45854,19,Female,ts-trial-spatial-rotation,ts-trial,338,1124131.435,2,2,1,1725.32,0,SS-SR,8
843,193,1718.75_45854,19,Female,ts-trial-spatial-rotation,ts-trial,340,1131313.29,2,1,,1731,0,SS-SR,8
844,194,1718.75_45854,19,Female,ts-trial-spatial-rotation,ts-trial,342,1137627.875,0,0,1,1687.44,0,SS-SR,8
845,195,1718.75_45854,19,Female,ts-trial-spatial-rotation,ts-trial,344,1144352.195,1,1,1,1313.395,0,SS-SR,8
846,196,1718.75_45854,19,Female,ts-trial-spatial-rotation,ts-trial,346,1150979.64,0,0,1,1426.275,0,SS-SR,8
584,11,1718.75_45854,19,Female,ts-trial-spatial-span,ts-trial,21,97761.89,0,1,,2378.09,1,DS-SS,1
588,12,1718.75_45854,19,Female,ts-trial-spatial-span,ts-trial,23,104850.05,1,1,1,1285.64,0,DS-SS,1
591,13,1718.75_45854,19,Female,ts-trial-spatial-span,ts-trial,25,111425.37,1,1,1,1540.13,0,DS-SS,1
594,14,1718.75_45854,19,Female,ts-trial-spatial-span,ts-trial,27,118294.96,1,1,1,2307.77,0,DS-SS,1
597,15,1718.75_45854,19,Female,ts-trial-spatial-span,ts-trial,29,124806.37,1,1,1,1294.315,0,DS-SS,1
601,16,1718.75_45854,19,Female,ts-trial-spatial-span,ts-trial,31,131496.94,1,1,1,2002.45,0,DS-SS,1
604,17,1718.75_45854,19,Female,ts-trial-spatial-span,ts-trial,33,137942.095,1,1,1,2560.425,0,DS-SS,1
607,18,1718.75_45854,19,Female,ts-trial-spatial-span,ts-trial,35,144771.52,2,2,1,1898.62,0,DS-SS,1
670,39,1718.75_45854,19,Female,ts-trial-spatial-span,ts-trial,71,262636.425,0,0,1,1720.385,1,SR-SS,2
672,40,1718.75_45854,19,Female,ts-trial-spatial-span,ts-trial,73,269899.45,0,0,1,922.01,0,SR-SS,2
674,41,1718.75_45854,19,Female,ts-trial-spatial-span,ts-trial,75,277039.25,0,2,,2123.495,0,SR-SS,2
676,42,1718.75_45854,19,Female,ts-trial-spatial-span,ts-trial,77,283964.455,1,2,,1650.3,0,SR-SS,2
678,43,1718.75_45854,19,Female,ts-trial-spatial-span,ts-trial,79,290781.1,2,2,1,2077.595,0,SR-SS,2
680,44,1718.75_45854,19,Female,ts-trial-spatial-span,ts-trial,81,297226.86,1,0,,2626.245,0,SR-SS,2
682,45,1718.75_45854,19,Female,ts-trial-spatial-span,ts-trial,83,303730.39,2,2,1,1560.12,0,SR-SS,2
684,46,1718.75_45854,19,Female,ts-trial-spatial-span,ts-trial,85,310760.28,2,1,,1934.325,0,SR-SS,2
705,58,1718.75_45854,19,Female,ts-trial-spatial-span,ts-trial,105,363439.94,2,0,,1610.88,1,DS-SS,3
707,59,1718.75_45854,19,Female,ts-trial-spatial-span,ts-trial,107,370410.74,0,1,,1543.82,0,DS-SS,3
710,60,1718.75_45854,19,Female,ts-trial-spatial-span,ts-trial,109,377098.455,1,1,1,1739.795,0,DS-SS,3
711,61,1718.75_45854,19,Female,ts-trial-spatial-span,ts-trial,111,383898.32,1,1,1,1560.35,0,DS-SS,3
712,62,1718.75_45854,19,Female,ts-trial-spatial-span,ts-trial,113,390202.42,1,0,,1590.925,0,DS-SS,3
713,63,1718.75_45854,19,Female,ts-trial-spatial-span,ts-trial,115,397182.825,1,1,1,1745.305,0,DS-SS,3
714,64,1718.75_45854,19,Female,ts-trial-spatial-span,ts-trial,117,403872.535,0,2,,2718.71,0,DS-SS,3
726,76,1718.75_45854,19,Female,ts-trial-spatial-span,ts-trial,137,477857.79,2,1,,1519.53,1,SR-SS,4
727,77,1718.75_45854,19,Female,ts-trial-spatial-span,ts-trial,139,484195.905,1,0,,1614.22,0,SR-SS,4
728,78,1718.75_45854,19,Female,ts-trial-spatial-span,ts-trial,141,491005.875,2,1,,2317.525,0,SR-SS,4
729,79,1718.75_45854,19,Female,ts-trial-spatial-span,ts-trial,143,497313.815,0,2,,1566.665,0,SR-SS,4
730,80,1718.75_45854,19,Female,ts-trial-spatial-span,ts-trial,145,503660.235,2,1,,928.77,0,SR-SS,4
731,81,1718.75_45854,19,Female,ts-trial-spatial-span,ts-trial,147,510040.17,1,1,1,1037.89,0,SR-SS,4
748,98,1718.75_45854,19,Female,ts-trial-spatial-span,ts-trial,175,603330.34,1,1,1,1408.13,1,DS-SS,5
749,99,1718.75_45854,19,Female,ts-trial-spatial-span,ts-trial,177,609606.825,1,1,1,1492.665,0,DS-SS,5
750,100,1718.75_45854,19,Female,ts-trial-spatial-span,ts-trial,179,616241.725,0,0,1,1083.905,0,DS-SS,5
751,101,1718.75_45854,19,Female,ts-trial-spatial-span,ts-trial,181,622918.34,0,0,1,1170.52,0,DS-SS,5
752,102,1718.75_45854,19,Female,ts-trial-spatial-span,ts-trial,183,630101.01,0,0,1,1462.615,0,DS-SS,5
753,103,1718.75_45854,19,Female,ts-trial-spatial-span,ts-trial,185,636513.025,1,2,,1448.54,0,DS-SS,5
754,104,1718.75_45854,19,Female,ts-trial-spatial-span,ts-trial,187,643698.34,2,2,1,1786.31,0,DS-SS,5
755,105,1718.75_45854,19,Female,ts-trial-spatial-span,ts-trial,189,650291.305,2,1,,1422.185,0,DS-SS,5
756,106,1718.75_45854,19,Female,ts-trial-spatial-span,ts-trial,191,656868.405,0,0,1,1314.785,0,DS-SS,5
781,131,1718.75_45854,19,Female,ts-trial-spatial-span,ts-trial,230,778950.06,2,0,,1647.48,1,SR-SS,6
782,132,1718.75_45854,19,Female,ts-trial-spatial-span,ts-trial,232,785848.115,0,1,,1482.655,0,SR-SS,6
783,133,1718.75_45854,19,Female,ts-trial-spatial-span,ts-trial,234,793104.815,0,0,1,1327.75,0,SR-SS,6
784,134,1718.75_45854,19,Female,ts-trial-spatial-span,ts-trial,236,799520.48,0,0,1,1636.65,0,SR-SS,6
785,135,1718.75_45854,19,Female,ts-trial-spatial-span,ts-trial,238,806014.17,2,2,1,1606.815,0,SR-SS,6
786,136,1718.75_45854,19,Female,ts-trial-spatial-span,ts-trial,240,812642.675,2,0,,1171.79,0,SR-SS,6
787,137,1718.75_45854,19,Female,ts-trial-spatial-span,ts-trial,242,819732.535,1,2,,1749.875,0,SR-SS,6
788,138,1718.75_45854,19,Female,ts-trial-spatial-span,ts-trial,244,826999.085,2,1,,1270.92,0,SR-SS,6
789,139,1718.75_45854,19,Female,ts-trial-spatial-span,ts-trial,246,833897.03,1,1,1,2197.74,0,SR-SS,6
